* Measurement data measured by REW V5.20.13
* Source: Vector average
* Format: Vector average
* Dated: Dec 24, 2023 11:56:56 AM
* REW Settings:
*  C-weighting compensation: Off
*  Target level: 75.0 dB
* Note: Vector average of Mega5est, Mega5est, Mega5est, Mega5est
* Measurement: Mega5est average
* Smoothing: 1/12 octave
* Frequency Step: 1/48 octave
* Start Frequency: 20.000 Hz
*
* Freq(Hz)	SPL(dB)	Phase(degrees)
20.000000	75.152	110.9067
20.299999	75.295	109.1353
20.600000	75.433	107.4111
20.900000	75.568	105.7254
21.200001	75.699	104.0710
21.400000	75.785	102.9835
21.799999	75.951	100.8437
22.000000	76.032	99.7904
22.400000	76.189	97.7139
22.700001	76.302	96.1789
23.000000	76.411	94.6608
23.299999	76.515	93.1601
23.600000	76.614	91.6803
24.000000	76.739	89.7497
24.299999	76.827	88.3400
24.700001	76.940	86.5139
25.000000	77.023	85.1801
25.400000	77.131	83.4381
25.799999	77.238	81.7242
26.200001	77.341	80.0293
26.500000	77.416	78.7688
26.900000	77.511	77.1023
27.200001	77.579	75.8637
27.600000	77.664	74.2296
28.000000	77.743	72.6212
28.500000	77.833	70.6623
29.000000	77.917	68.7777
29.500000	77.999	66.9644
30.000000	78.084	65.1928
30.400000	78.153	63.7834
30.700001	78.204	62.7248
31.100000	78.270	61.3123
31.500000	78.332	59.9062
32.000000	78.404	58.1676
32.500000	78.472	56.4520
33.000000	78.535	54.7590
33.500000	78.591	53.0978
34.000000	78.641	51.4851
34.500000	78.688	49.9264
35.000000	78.734	48.4067
35.500000	78.778	46.9070
36.000000	78.818	45.4279
36.500000	78.851	43.9898
37.000000	78.882	42.6093
37.500000	78.915	41.2769
38.200001	78.965	39.4383
38.700001	79.001	38.1227
39.500000	79.051	36.0414
40.000000	79.081	34.7679
40.599998	79.117	33.2493
41.200001	79.148	31.7293
41.799999	79.172	30.2307
42.500000	79.192	28.5497
43.099998	79.207	27.1652
43.700001	79.220	25.8146
44.400002	79.231	24.2777
45.000000	79.236	22.9888
45.500000	79.238	21.9230
46.200001	79.229	20.4554
46.799999	79.213	19.2729
47.500000	79.197	18.0165
48.200001	79.201	16.7959
48.700001	79.212	15.8667
49.400002	79.223	14.4753
50.000000	79.224	13.2688
50.799999	79.226	11.7017
51.500000	79.233	10.3190
52.200001	79.239	8.8970
53.000000	79.235	7.2893
53.799999	79.228	5.7498
54.500000	79.222	4.4448
55.200001	79.214	3.1751
56.000000	79.206	1.7715
57.000000	79.197	0.0495
58.000000	79.184	-1.6730
59.000000	79.158	-3.3752
60.000000	79.118	-4.9929
60.799999	79.080	-6.1686
61.500000	79.052	-7.1154
62.200001	79.033	-8.0305
63.000000	79.017	-9.0876
64.000000	78.996	-10.4445
65.000000	78.967	-11.8079
66.000000	78.929	-13.1390
67.000000	78.890	-14.4368
68.000000	78.851	-15.7349
69.000000	78.809	-17.0378
70.000000	78.766	-18.3197
71.000000	78.725	-19.5747
72.000000	78.687	-20.8107
73.000000	78.649	-22.0281
74.000000	78.608	-23.2181
75.000000	78.564	-24.3665
76.199997	78.508	-25.6882
77.500000	78.445	-27.0782
78.800003	78.379	-28.4460
80.000000	78.315	-29.6895
81.199997	78.249	-30.9031
82.500000	78.181	-32.1776
83.800003	78.120	-33.4349
85.000000	78.066	-34.6028
86.199997	78.012	-35.7741
87.500000	77.950	-37.0326
88.500000	77.900	-37.9862
90.000000	77.822	-39.3829
91.199997	77.759	-40.4635
92.500000	77.690	-41.5824
93.800003	77.624	-42.6430
95.000000	77.566	-43.5924
96.199997	77.509	-44.5343
97.500000	77.447	-45.5519
98.800003	77.383	-46.5667
100.000000	77.325	-47.5020
101.500000	77.253	-48.6669
103.000000	77.179	-49.8138
104.400002	77.107	-50.8406
106.000000	77.018	-51.9327
107.500000	76.933	-52.8901
109.000000	76.850	-53.8069
110.599998	76.767	-54.7667
112.000000	76.702	-55.6295
113.800003	76.621	-56.7860
115.000000	76.563	-57.5654
117.199997	76.444	-58.9479
118.000000	76.398	-59.4225
120.599998	76.264	-60.8580
122.000000	76.209	-61.6215
124.099998	76.138	-62.7892
125.000000	76.108	-63.2740
126.500000	76.054	-64.0361
128.000000	75.996	-64.7464
131.500000	75.840	-66.3201
132.000000	75.815	-66.5404
134.000000	75.718	-67.4194
136.000000	75.629	-68.3195
138.000000	75.547	-69.2408
140.000000	75.467	-70.1377
143.000000	75.351	-71.3928
145.000000	75.274	-72.1904
147.500000	75.176	-73.1879
150.000000	75.081	-74.1957
152.500000	74.987	-75.1750
155.000000	74.894	-76.0972
157.500000	74.808	-77.0106
160.000000	74.730	-77.9673
162.500000	74.654	-78.9095
165.000000	74.577	-79.7312
167.500000	74.502	-80.4429
170.000000	74.429	-81.1316
172.500000	74.355	-81.8338
175.000000	74.282	-82.5441
177.500000	74.211	-83.2462
180.000000	74.145	-83.9271
182.500000	74.084	-84.5892
185.000000	74.026	-85.2437
187.500000	73.969	-85.8940
190.000000	73.913	-86.5352
192.500000	73.858	-87.1602
195.000000	73.806	-87.7655
197.500000	73.756	-88.3542
200.000000	73.707	-88.9317
203.000000	73.649	-89.6155
206.000000	73.593	-90.2871
209.000000	73.538	-90.9382
212.000000	73.487	-91.5692
214.000000	73.455	-91.9831
218.000000	73.395	-92.8007
220.000000	73.367	-93.2021
224.000000	73.313	-93.9871
227.000000	73.273	-94.5645
230.000000	73.236	-95.1317
233.000000	73.203	-95.6826
236.000000	73.174	-96.2173
240.000000	73.141	-96.9174
243.000000	73.119	-97.4398
247.000000	73.092	-98.1393
250.000000	73.073	-98.6714
254.000000	73.048	-99.3935
258.000000	73.022	-100.1200
262.000000	72.996	-100.8354
265.000000	72.978	-101.3572
269.000000	72.954	-102.0312
272.000000	72.936	-102.5226
276.000000	72.913	-103.1619
280.000000	72.893	-103.7821
285.000000	72.872	-104.5256
290.000000	72.858	-105.2445
295.000000	72.848	-105.9647
300.000000	72.843	-106.6974
304.000000	72.843	-107.2836
307.000000	72.845	-107.7220
311.000000	72.848	-108.3124
315.000000	72.852	-108.9169
320.000000	72.855	-109.6904
325.000000	72.855	-110.4662
330.000000	72.852	-111.2262
335.000000	72.847	-111.9620
340.000000	72.842	-112.6705
345.000000	72.838	-113.3538
350.000000	72.835	-114.0189
355.000000	72.834	-114.6719
360.000000	72.835	-115.3201
365.000000	72.839	-115.9708
370.000000	72.844	-116.6237
375.000000	72.849	-117.2756
382.000000	72.855	-118.1824
387.000000	72.858	-118.8204
395.000000	72.863	-119.8159
400.000000	72.865	-120.4215
406.000000	72.868	-121.1336
412.000000	72.870	-121.8300
418.000000	72.874	-122.5134
425.000000	72.877	-123.3021
431.000000	72.880	-123.9700
437.000000	72.882	-124.6249
444.000000	72.886	-125.3726
450.000000	72.889	-126.0002
455.000000	72.892	-126.5142
462.000000	72.896	-127.2215
468.000000	72.899	-127.8171
475.000000	72.902	-128.4996
482.000000	72.905	-129.1650
487.000000	72.906	-129.6283
494.000000	72.908	-130.2623
500.000000	72.910	-130.7953
508.000000	72.914	-131.4953
515.000000	72.916	-132.0975
522.000000	72.918	-132.6864
530.000000	72.920	-133.3417
538.000000	72.921	-133.9813
545.000000	72.920	-134.5320
552.000000	72.920	-135.0719
560.000000	72.919	-135.6693
570.000000	72.917	-136.3871
580.000000	72.916	-137.0778
590.000000	72.915	-137.7419
600.000000	72.913	-138.3796
608.000000	72.911	-138.8707
615.000000	72.909	-139.2870
622.000000	72.906	-139.6920
630.000000	72.902	-140.1417
640.000000	72.897	-140.6814
650.000000	72.891	-141.1907
660.000000	72.886	-141.6686
670.000000	72.883	-142.1197
680.000000	72.880	-142.5481
690.000000	72.878	-142.9554
700.000000	72.877	-143.3421
710.000000	72.877	-143.7094
720.000000	72.876	-144.0579
730.000000	72.876	-144.3876
740.000000	72.878	-144.6981
750.000000	72.880	-144.9902
762.000000	72.884	-145.3180
775.000000	72.890	-145.6475
788.000000	72.897	-145.9547
800.000000	72.905	-146.2178
812.000000	72.914	-146.4576
825.000000	72.924	-146.6921
838.000000	72.935	-146.9024
850.000000	72.945	-147.0737
862.000000	72.956	-147.2199
875.000000	72.970	-147.3448
885.000000	72.982	-147.4131
900.000000	73.004	-147.4629
912.000000	73.026	-147.4561
925.000000	73.057	-147.4091
938.000000	73.098	-147.3339
950.000000	73.145	-147.2538
962.000000	73.200	-147.1804
975.000000	73.270	-147.1282
988.000000	73.347	-147.1202
1000.000000	73.423	-147.1588
1015.000000	73.521	-147.2673
1030.000000	73.620	-147.4336
1044.000000	73.710	-147.6318
1060.000000	73.811	-147.9004
1075.000000	73.902	-148.1856
1090.000000	73.991	-148.4988
1106.000000	74.081	-148.8572
1120.000000	74.156	-149.1852
1138.000000	74.248	-149.6204
1150.000000	74.307	-149.9150
1172.000000	74.409	-150.4562
1180.000000	74.445	-150.6521
1206.000000	74.558	-151.2849
1220.000000	74.616	-151.6244
1241.000000	74.700	-152.1348
1250.000000	74.735	-152.3541
1265.000000	74.791	-152.7198
1280.000000	74.844	-153.0844
1315.000000	74.961	-153.9214
1320.000000	74.977	-154.0389
1340.000000	75.038	-154.5020
1360.000000	75.095	-154.9514
1380.000000	75.150	-155.3839
1400.000000	75.201	-155.7961
1430.000000	75.272	-156.3778
1450.000000	75.318	-156.7417
1475.000000	75.373	-157.1679
1500.000000	75.427	-157.5626
1525.000000	75.481	-157.9265
1550.000000	75.534	-158.2635
1575.000000	75.586	-158.5768
1600.000000	75.639	-158.8650
1625.000000	75.691	-159.1260
1650.000000	75.744	-159.3597
1675.000000	75.798	-159.5715
1700.000000	75.854	-159.7667
1725.000000	75.911	-159.9460
1750.000000	75.970	-160.1091
1775.000000	76.031	-160.2569
1800.000000	76.094	-160.3909
1825.000000	76.159	-160.5135
1850.000000	76.226	-160.6272
1875.000000	76.296	-160.7328
1900.000000	76.368	-160.8331
1925.000000	76.443	-160.9315
1950.000000	76.520	-161.0300
1975.000000	76.599	-161.1293
2000.000000	76.681	-161.2297
2030.000000	76.782	-161.3526
2060.000000	76.886	-161.4796
2090.000000	76.993	-161.6146
2120.000000	77.104	-161.7619
2140.000000	77.179	-161.8680
2180.000000	77.335	-162.1001
2200.000000	77.415	-162.2277
2240.000000	77.579	-162.5109
2270.000000	77.706	-162.7506
2300.000000	77.834	-163.0166
2330.000000	77.964	-163.3113
2360.000000	78.096	-163.6373
2400.000000	78.274	-164.1238
2430.000000	78.409	-164.5308
2470.000000	78.589	-165.1331
2500.000000	78.724	-165.6303
2540.000000	78.903	-166.3538
2580.000000	79.079	-167.1450
2620.000000	79.251	-168.0008
2650.000000	79.379	-168.6837
2690.000000	79.546	-169.6492
2720.000000	79.669	-170.4175
2760.000000	79.830	-171.5092
2800.000000	79.986	-172.6894
2850.000000	80.169	-174.2997
2900.000000	80.333	-176.0480
2950.000000	80.474	-177.9088
3000.000000	80.591	-179.8648
3040.000000	80.665	178.5140
3070.000000	80.708	177.2745
3110.000000	80.748	175.6053
3150.000000	80.767	173.9357
3200.000000	80.764	171.8784
3250.000000	80.733	169.8851
3300.000000	80.676	167.9822
3350.000000	80.599	166.1863
3400.000000	80.505	164.5043
3450.000000	80.397	162.9390
3500.000000	80.278	161.4929
3550.000000	80.151	160.1641
3600.000000	80.019	158.9465
3650.000000	79.884	157.8353
3700.000000	79.747	156.8267
3750.000000	79.612	155.9117
3820.000000	79.431	154.7509
3870.000000	79.309	153.9754
3950.000000	79.124	152.7724
4000.000000	79.013	152.0204
4060.000000	78.880	151.1000
4120.000000	78.746	150.1487
4180.000000	78.606	149.1588
4250.000000	78.429	147.9568
4310.000000	78.262	146.9000
4370.000000	78.076	145.8423
4440.000000	77.830	144.6478
4500.000000	77.595	143.6990
4550.000000	77.380	142.9927
4620.000000	77.053	142.1859
4680.000000	76.753	141.7065
4750.000000	76.391	141.4282
4820.000000	76.027	141.4540
4870.000000	75.770	141.6453
4940.000000	75.422	142.1270
5000.000000	75.138	142.7128
5080.000000	74.784	143.7033
5150.000000	74.498	144.7308
5220.000000	74.238	145.8776
5300.000000	73.972	147.2997
5380.000000	73.739	148.7996
5450.000000	73.563	150.1392
5520.000000	73.409	151.4736
5600.000000	73.255	152.9664
5700.000000	73.089	154.7692
5800.000000	72.938	156.5274
5900.000000	72.799	158.2969
6000.000000	72.671	160.1323
6080.000000	72.581	161.6747
6150.000000	72.514	163.0860
6220.000000	72.462	164.5524
6300.000000	72.425	166.2833
6400.000000	72.417	168.4948
6500.000000	72.454	170.7102
6600.000000	72.539	172.8766
6700.000000	72.673	174.9323
6800.000000	72.852	176.8094
6900.000000	73.070	178.4453
7000.000000	73.318	179.7889
7100.000000	73.587	-179.1976
7200.000000	73.865	-178.5390
7300.000000	74.140	-178.2389
7400.000000	74.400	-178.2782
7500.000000	74.635	-178.6260
7620.000000	74.872	-179.3723
7750.000000	75.068	179.5701
7880.000000	75.210	178.3644
8000.000000	75.295	177.1204
8120.000000	75.327	175.7487
8250.000000	75.288	174.2050
8380.000000	75.163	172.7827
8500.000000	74.975	171.7568
8620.000000	74.732	171.1424
8750.000000	74.427	171.0373
8850.000000	74.180	171.3806
9000.000000	73.815	172.5754
9120.000000	73.553	174.0666
9250.000000	73.321	176.1296
9380.000000	73.159	178.5436
9500.000000	73.085	-179.0332
9620.000000	73.089	-176.5414
9750.000000	73.182	-173.9043
9880.000000	73.364	-171.4819
10000.000000	73.602	-169.5638
10150.000000	73.973	-167.7633
10300.000000	74.395	-166.7939
10440.000000	74.801	-166.7643
10600.000000	75.231	-167.8608
10750.000000	75.549	-169.9944
10900.000000	75.733	-173.0698
11060.000000	75.733	-177.0261
11200.000000	75.545	179.3971
11380.000000	75.055	175.3592
11500.000000	74.599	173.3309
11720.000000	73.585	171.3207
11800.000000	73.182	171.1377
12060.000000	71.833	172.3598
12200.000000	71.118	174.0460
12410.000000	70.109	177.7162
12500.000000	69.712	179.6440
12650.000000	69.110	-176.7686
12800.000000	68.596	-172.8271
13150.000000	67.781	-162.9788
13200.000000	67.711	-161.5641
13400.000000	67.548	-156.0685
13600.000000	67.567	-151.0621
13800.000000	67.748	-146.8672
14000.000000	68.053	-143.8219
14300.000000	68.607	-142.0430
14500.000000	68.926	-142.9041
14750.000000	69.140	-146.0211
15000.000000	69.066	-150.6084
15250.000000	68.686	-155.6208
15500.000000	68.046	-160.2028
15750.000000	67.230	-163.9265
16000.000000	66.340	-166.8961
16250.000000	65.449	-169.5243
16500.000000	64.591	-172.2799
16750.000000	63.760	-175.6168
17000.000000	62.895	-179.6627
17250.000000	61.916	176.1080
17500.000000	60.804	172.7303
17750.000000	59.717	170.8659
18000.000000	59.019	169.6232
18250.000000	59.010	166.3772
18500.000000	59.523	158.2634
18750.000000	60.146	143.8292
19000.000000	60.603	123.1639
19250.000000	60.786	97.3572
19500.000000	60.684	68.8773
19750.000000	60.383	42.7292
