* Measurement data measured by REW V5.20.13
* Source: Frequency Response Averaged data
* Format: Averaged data produced from the rms magnitudes of Symph Crimson R Grey Tips, Symph Crimson R Grey Tips, Symph Crimson R Grey Tips, Symph Crimson R Grey Tips, Symph Crimson R Grey Tips, RMS Average 1, RMS Average 1
* Dated: Mar 4, 2024 5:22:26 PM
* REW Settings:
*  C-weighting compensation: Off
*  Target level: 75.0 dB
* Note: Averaged data produced from the rms magnitudes of Symph Crimson R Grey Tips, Symph Crimson R Grey Tips, Symph Crimson R Grey Tips, Symph Crimson R Grey Tips, Symph Crimson R Grey Tips, RMS Average 1, RMS Average 1
* Measurement: RMS Average R Grey Tips
* Smoothing: 1/12 octave
* Frequency Step: 1/48 octave
* Start Frequency: 20.000 Hz
*
* Freq(Hz)	SPL(dB)
20.000000	68.743
20.299999	68.965
20.600000	69.172
20.900000	69.371
21.200001	69.566
21.400000	69.694
21.799999	69.947
22.000000	70.069
22.400000	70.301
22.700001	70.464
23.000000	70.617
23.299999	70.763
23.600000	70.903
24.000000	71.085
24.299999	71.219
24.700001	71.395
25.000000	71.525
25.400000	71.692
25.799999	71.854
26.200001	72.009
26.500000	72.121
26.900000	72.266
27.200001	72.373
27.600000	72.511
28.000000	72.645
28.500000	72.802
29.000000	72.948
29.500000	73.081
30.000000	73.207
30.400000	73.305
30.700001	73.378
31.100000	73.473
31.500000	73.565
32.000000	73.675
32.500000	73.777
33.000000	73.873
33.500000	73.965
34.000000	74.052
34.500000	74.137
35.000000	74.218
35.500000	74.294
36.000000	74.367
36.500000	74.435
37.000000	74.500
37.500000	74.561
38.200001	74.642
38.700001	74.696
39.500000	74.778
40.000000	74.826
40.599998	74.879
41.200001	74.929
41.799999	74.975
42.500000	75.024
43.099998	75.061
43.700001	75.095
44.400002	75.128
45.000000	75.151
45.500000	75.168
46.200001	75.189
46.799999	75.204
47.500000	75.220
48.200001	75.233
48.700001	75.243
49.400002	75.257
50.000000	75.270
50.799999	75.287
51.500000	75.302
52.200001	75.313
53.000000	75.321
53.799999	75.324
54.500000	75.322
55.200001	75.316
56.000000	75.303
57.000000	75.278
58.000000	75.244
59.000000	75.207
60.000000	75.176
60.799999	75.161
61.500000	75.154
62.200001	75.150
63.000000	75.146
64.000000	75.134
65.000000	75.114
66.000000	75.087
67.000000	75.055
68.000000	75.020
69.000000	74.983
70.000000	74.946
71.000000	74.909
72.000000	74.874
73.000000	74.839
74.000000	74.804
75.000000	74.767
76.199997	74.722
77.500000	74.669
78.800003	74.612
80.000000	74.558
81.199997	74.503
82.500000	74.443
83.800003	74.384
85.000000	74.330
86.199997	74.276
87.500000	74.217
88.500000	74.172
90.000000	74.105
91.199997	74.051
92.500000	73.993
93.800003	73.934
95.000000	73.880
96.199997	73.825
97.500000	73.765
98.800003	73.705
100.000000	73.649
101.500000	73.579
103.000000	73.508
104.400002	73.442
106.000000	73.368
107.500000	73.302
109.000000	73.239
110.599998	73.177
112.000000	73.124
113.800003	73.052
115.000000	73.000
117.199997	72.892
118.000000	72.851
120.599998	72.723
122.000000	72.662
124.099998	72.579
125.000000	72.545
126.500000	72.487
128.000000	72.427
131.500000	72.283
132.000000	72.263
134.000000	72.187
136.000000	72.114
138.000000	72.044
140.000000	71.977
143.000000	71.887
145.000000	71.831
147.500000	71.761
150.000000	71.684
152.500000	71.603
155.000000	71.523
157.500000	71.456
160.000000	71.415
162.500000	71.406
165.000000	71.409
167.500000	71.390
170.000000	71.323
172.500000	71.216
175.000000	71.094
177.500000	70.982
180.000000	70.892
182.500000	70.821
185.000000	70.763
187.500000	70.712
190.000000	70.665
192.500000	70.621
195.000000	70.581
197.500000	70.540
200.000000	70.497
203.000000	70.443
206.000000	70.389
209.000000	70.337
212.000000	70.290
214.000000	70.261
218.000000	70.205
220.000000	70.179
224.000000	70.127
227.000000	70.089
230.000000	70.054
233.000000	70.021
236.000000	69.990
240.000000	69.950
243.000000	69.920
247.000000	69.883
250.000000	69.858
254.000000	69.828
258.000000	69.801
262.000000	69.777
265.000000	69.760
269.000000	69.738
272.000000	69.723
276.000000	69.705
280.000000	69.688
285.000000	69.670
290.000000	69.654
295.000000	69.640
300.000000	69.629
304.000000	69.623
307.000000	69.620
311.000000	69.618
315.000000	69.618
320.000000	69.621
325.000000	69.626
330.000000	69.633
335.000000	69.641
340.000000	69.650
345.000000	69.658
350.000000	69.668
355.000000	69.677
360.000000	69.688
365.000000	69.700
370.000000	69.712
375.000000	69.726
382.000000	69.746
387.000000	69.761
395.000000	69.785
400.000000	69.801
406.000000	69.819
412.000000	69.837
418.000000	69.854
425.000000	69.874
431.000000	69.890
437.000000	69.906
444.000000	69.924
450.000000	69.939
455.000000	69.951
462.000000	69.967
468.000000	69.979
475.000000	69.992
482.000000	70.004
487.000000	70.012
494.000000	70.021
500.000000	70.029
508.000000	70.037
515.000000	70.044
522.000000	70.049
530.000000	70.054
538.000000	70.057
545.000000	70.058
552.000000	70.059
560.000000	70.058
570.000000	70.057
580.000000	70.054
590.000000	70.049
600.000000	70.044
608.000000	70.039
615.000000	70.034
622.000000	70.028
630.000000	70.022
640.000000	70.013
650.000000	70.005
660.000000	69.996
670.000000	69.986
680.000000	69.977
690.000000	69.968
700.000000	69.961
710.000000	69.954
720.000000	69.947
730.000000	69.942
740.000000	69.938
750.000000	69.936
762.000000	69.936
775.000000	69.938
788.000000	69.945
800.000000	69.954
812.000000	69.967
825.000000	69.984
838.000000	70.006
850.000000	70.028
862.000000	70.054
875.000000	70.086
885.000000	70.114
900.000000	70.160
912.000000	70.200
925.000000	70.248
938.000000	70.299
950.000000	70.350
962.000000	70.404
975.000000	70.465
988.000000	70.529
1000.000000	70.590
1015.000000	70.671
1030.000000	70.754
1044.000000	70.834
1060.000000	70.927
1075.000000	71.016
1090.000000	71.106
1106.000000	71.203
1120.000000	71.288
1138.000000	71.397
1150.000000	71.470
1172.000000	71.603
1180.000000	71.651
1206.000000	71.807
1220.000000	71.889
1241.000000	72.013
1250.000000	72.065
1265.000000	72.151
1280.000000	72.237
1315.000000	72.433
1320.000000	72.461
1340.000000	72.570
1360.000000	72.679
1380.000000	72.787
1400.000000	72.895
1430.000000	73.056
1450.000000	73.163
1475.000000	73.298
1500.000000	73.434
1525.000000	73.571
1550.000000	73.708
1575.000000	73.847
1600.000000	73.987
1625.000000	74.129
1650.000000	74.272
1675.000000	74.415
1700.000000	74.559
1725.000000	74.704
1750.000000	74.849
1775.000000	74.995
1800.000000	75.140
1825.000000	75.286
1850.000000	75.432
1875.000000	75.577
1900.000000	75.721
1925.000000	75.863
1950.000000	76.004
1975.000000	76.143
2000.000000	76.279
2030.000000	76.439
2060.000000	76.594
2090.000000	76.743
2120.000000	76.886
2140.000000	76.977
2180.000000	77.149
2200.000000	77.230
2240.000000	77.379
2270.000000	77.481
2300.000000	77.572
2330.000000	77.654
2360.000000	77.726
2400.000000	77.806
2430.000000	77.854
2470.000000	77.903
2500.000000	77.929
2540.000000	77.950
2580.000000	77.957
2620.000000	77.951
2650.000000	77.940
2690.000000	77.917
2720.000000	77.894
2760.000000	77.859
2800.000000	77.820
2850.000000	77.769
2900.000000	77.719
2950.000000	77.674
3000.000000	77.636
3040.000000	77.611
3070.000000	77.595
3110.000000	77.577
3150.000000	77.560
3200.000000	77.537
3250.000000	77.508
3300.000000	77.470
3350.000000	77.418
3400.000000	77.347
3450.000000	77.253
3500.000000	77.132
3550.000000	76.979
3600.000000	76.792
3650.000000	76.569
3700.000000	76.308
3750.000000	76.010
3820.000000	75.533
3870.000000	75.156
3950.000000	74.511
4000.000000	74.100
4060.000000	73.627
4120.000000	73.211
4180.000000	72.899
4250.000000	72.726
4310.000000	72.776
4370.000000	73.012
4440.000000	73.478
4500.000000	73.977
4550.000000	74.416
4620.000000	75.001
4680.000000	75.432
4750.000000	75.813
4820.000000	76.050
4870.000000	76.130
4940.000000	76.129
5000.000000	76.038
5080.000000	75.821
5150.000000	75.572
5220.000000	75.297
5300.000000	74.980
5380.000000	74.686
5450.000000	74.464
5520.000000	74.285
5600.000000	74.141
5700.000000	74.059
5800.000000	74.086
5900.000000	74.212
6000.000000	74.414
6080.000000	74.607
6150.000000	74.782
6220.000000	74.946
6300.000000	75.100
6400.000000	75.215
6500.000000	75.218
6600.000000	75.096
6700.000000	74.852
6800.000000	74.506
6900.000000	74.094
7000.000000	73.675
7100.000000	73.325
7200.000000	73.127
7300.000000	73.138
7400.000000	73.358
7500.000000	73.736
7620.000000	74.285
7750.000000	74.853
7880.000000	75.272
8000.000000	75.456
8120.000000	75.414
8250.000000	75.110
8380.000000	74.556
8500.000000	73.855
8620.000000	73.012
8750.000000	72.000
8850.000000	71.193
9000.000000	70.016
9120.000000	69.161
9250.000000	68.375
9380.000000	67.764
9500.000000	67.364
9620.000000	67.113
9750.000000	66.989
9880.000000	66.990
10000.000000	67.077
10150.000000	67.269
10300.000000	67.519
10440.000000	67.773
10600.000000	68.049
10750.000000	68.265
10900.000000	68.423
11060.000000	68.527
11200.000000	68.578
11380.000000	68.629
11500.000000	68.684
11720.000000	68.910
11800.000000	69.052
12060.000000	69.783
12200.000000	70.336
12410.000000	71.276
12500.000000	71.680
12650.000000	72.302
12800.000000	72.815
13150.000000	73.471
13200.000000	73.505
13400.000000	73.521
13600.000000	73.371
13800.000000	73.068
14000.000000	72.617
14300.000000	71.728
14500.000000	71.098
14750.000000	70.411
15000.000000	69.892
15250.000000	69.498
15500.000000	69.220
15750.000000	69.162
16000.000000	69.427
16250.000000	69.986
16500.000000	70.728
16750.000000	71.555
17000.000000	72.389
17250.000000	73.154
17500.000000	73.789
17750.000000	74.256
18000.000000	74.541
18250.000000	74.634
18500.000000	74.524
18750.000000	74.195
19000.000000	73.639
19250.000000	72.869
19500.000000	71.951
19750.000000	71.049
