* Measurement data measured by REW V5.20.13
* Source: EXCL: Headset (USB-C to 3.5mm Headphone Jack Adapter), MICROPHONE (Master Volume), 0, volume: 0.260. Timing signal peak level -31.2 dBFS, measurement signal peak level -31.0 dBFS
* Format: 256k Log Swept Sine, 1 sweep at -20.0 dBFS using an acoustic timing reference
* Dated: Jun 8, 2023 9:39:59 PM
* REW Settings:
*  C-weighting compensation: Off
*  Target level: 75.0 dB
* Note: Australis Capra Headband
* Measurement: Australis Stock Headband
* Smoothing: 1/12 octave
* Frequency Step: 1/48 octave
* Start Frequency: 20.000 Hz
*
* Freq(Hz)	SPL(dB)	Phase(degrees)
20.000000	76.026	-83.3199
20.299999	76.159	-84.3746
20.600000	76.288	-85.4363
20.900000	76.410	-86.4897
21.200001	76.527	-87.5114
21.400000	76.603	-88.1650
21.799999	76.755	-89.4099
22.000000	76.834	-90.0106
22.400000	76.997	-91.2060
22.700001	77.121	-92.1296
23.000000	77.241	-93.0915
23.299999	77.352	-94.0750
23.600000	77.452	-95.0479
24.000000	77.571	-96.2714
24.299999	77.655	-97.1059
24.700001	77.771	-98.1176
25.000000	77.865	-98.8399
25.400000	77.999	-99.8189
25.799999	78.135	-100.8674
26.200001	78.264	-101.9915
26.500000	78.352	-102.8680
26.900000	78.458	-104.0597
27.200001	78.529	-104.9614
27.600000	78.611	-106.1654
28.000000	78.677	-107.3483
28.500000	78.739	-108.7294
29.000000	78.792	-109.9319
29.500000	78.857	-110.9803
30.000000	78.944	-112.0118
30.400000	79.022	-112.9148
30.700001	79.078	-113.6495
31.100000	79.142	-114.6697
31.500000	79.192	-115.6772
32.000000	79.242	-116.8443
32.500000	79.292	-117.9036
33.000000	79.347	-118.9156
33.500000	79.401	-119.9263
34.000000	79.449	-120.9286
34.500000	79.489	-121.8894
35.000000	79.523	-122.7961
35.500000	79.553	-123.6588
36.000000	79.577	-124.4822
36.500000	79.594	-125.2512
37.000000	79.607	-125.9474
37.500000	79.620	-126.5710
38.200001	79.644	-127.3576
38.700001	79.667	-127.8818
39.500000	79.711	-128.6870
40.000000	79.745	-129.1885
40.599998	79.789	-129.8019
41.200001	79.835	-130.4206
41.799999	79.885	-131.0384
42.500000	79.951	-131.7863
43.099998	80.010	-132.4899
43.700001	80.062	-133.2522
44.400002	80.109	-134.1610
45.000000	80.140	-134.9075
45.500000	80.163	-135.5014
46.200001	80.192	-136.3176
46.799999	80.211	-137.0175
47.500000	80.223	-137.8024
48.200001	80.227	-138.5058
48.700001	80.232	-138.9555
49.400002	80.244	-139.5423
50.000000	80.261	-140.0345
50.799999	80.287	-140.6935
51.500000	80.312	-141.2597
52.200001	80.338	-141.7846
53.000000	80.376	-142.3191
53.799999	80.430	-142.8379
54.500000	80.484	-143.3395
55.200001	80.535	-143.8889
56.000000	80.580	-144.5079
57.000000	80.630	-145.1660
58.000000	80.692	-145.7754
59.000000	80.756	-146.5034
60.000000	80.799	-147.2742
60.799999	80.829	-147.8409
61.500000	80.860	-148.3342
62.200001	80.895	-148.8689
63.000000	80.935	-149.5482
64.000000	80.977	-150.4986
65.000000	81.003	-151.5330
66.000000	81.009	-152.5882
67.000000	80.994	-153.5983
68.000000	80.963	-154.5061
69.000000	80.922	-155.2779
70.000000	80.878	-155.9028
71.000000	80.837	-156.3834
72.000000	80.806	-156.7411
73.000000	80.787	-157.0217
74.000000	80.779	-157.2814
75.000000	80.776	-157.5430
76.199997	80.777	-157.8474
77.500000	80.788	-158.1660
78.800003	80.815	-158.5153
80.000000	80.853	-158.9229
81.199997	80.895	-159.4456
82.500000	80.932	-160.1180
83.800003	80.952	-160.7947
85.000000	80.963	-161.3571
86.199997	80.975	-161.8701
87.500000	80.991	-162.4063
88.500000	81.004	-162.8201
90.000000	81.022	-163.4417
91.199997	81.034	-163.9223
92.500000	81.048	-164.4128
93.800003	81.064	-164.8994
95.000000	81.080	-165.4026
96.199997	81.086	-165.9716
97.500000	81.081	-166.6076
98.800003	81.070	-167.2168
100.000000	81.063	-167.7518
101.500000	81.061	-168.3985
103.000000	81.065	-169.0299
104.400002	81.067	-169.6107
106.000000	81.064	-170.2714
107.500000	81.056	-170.8921
109.000000	81.045	-171.5142
110.599998	81.035	-172.1736
112.000000	81.023	-172.7391
113.800003	80.997	-173.4349
115.000000	80.968	-173.8795
117.199997	80.889	-174.6875
118.000000	80.854	-174.9772
120.599998	80.758	-175.8661
122.000000	80.726	-176.3541
124.099998	80.689	-177.0828
125.000000	80.671	-177.3669
126.500000	80.638	-177.8031
128.000000	80.597	-178.2119
131.500000	80.485	-179.1167
132.000000	80.469	-179.2454
134.000000	80.402	-179.7571
136.000000	80.328	179.7620
138.000000	80.246	179.3378
140.000000	80.161	178.9827
143.000000	80.036	178.6266
145.000000	79.958	178.5201
147.500000	79.870	178.4690
150.000000	79.792	178.4515
152.500000	79.731	178.4581
155.000000	79.689	178.4541
157.500000	79.656	178.3947
160.000000	79.624	178.2969
162.500000	79.597	178.2132
165.000000	79.571	178.1442
167.500000	79.533	178.0534
170.000000	79.481	177.9189
172.500000	79.429	177.7386
175.000000	79.385	177.5469
177.500000	79.351	177.3857
180.000000	79.322	177.2651
182.500000	79.297	177.1575
185.000000	79.273	177.0223
187.500000	79.243	176.8444
190.000000	79.203	176.6352
192.500000	79.156	176.4144
195.000000	79.103	176.2072
197.500000	79.049	176.0388
200.000000	78.997	175.9265
203.000000	78.940	175.8577
206.000000	78.887	175.8145
209.000000	78.834	175.7588
212.000000	78.779	175.6901
214.000000	78.741	175.6488
218.000000	78.664	175.6132
220.000000	78.625	175.6163
224.000000	78.545	175.6265
227.000000	78.484	175.6393
230.000000	78.424	175.6854
233.000000	78.366	175.7844
236.000000	78.309	175.9265
240.000000	78.236	176.0926
243.000000	78.188	176.1473
247.000000	78.128	176.2117
250.000000	78.081	176.3105
254.000000	78.015	176.4888
258.000000	77.947	176.7205
262.000000	77.879	177.0386
265.000000	77.830	177.3315
269.000000	77.772	177.7693
272.000000	77.736	178.1064
276.000000	77.700	178.5322
280.000000	77.674	178.9233
285.000000	77.647	179.3889
290.000000	77.619	179.8696
295.000000	77.583	-179.6155
300.000000	77.548	-179.0530
304.000000	77.528	-178.5768
307.000000	77.518	-178.2175
311.000000	77.511	-177.7392
315.000000	77.510	-177.2599
320.000000	77.521	-176.6723
325.000000	77.544	-176.1200
330.000000	77.573	-175.6133
335.000000	77.605	-175.1552
340.000000	77.636	-174.7465
345.000000	77.665	-174.3700
350.000000	77.690	-173.9907
355.000000	77.713	-173.5799
360.000000	77.741	-173.1358
365.000000	77.776	-172.6781
370.000000	77.822	-172.2239
375.000000	77.876	-171.7860
382.000000	77.966	-171.2230
387.000000	78.036	-170.8694
395.000000	78.151	-170.3925
400.000000	78.226	-170.1413
406.000000	78.320	-169.8745
412.000000	78.419	-169.6554
418.000000	78.523	-169.5087
425.000000	78.643	-169.4525
431.000000	78.744	-169.4973
437.000000	78.838	-169.5920
444.000000	78.942	-169.7309
450.000000	79.027	-169.8757
455.000000	79.095	-170.0211
462.000000	79.186	-170.2661
468.000000	79.261	-170.5129
475.000000	79.343	-170.8360
482.000000	79.421	-171.1908
487.000000	79.473	-171.4653
494.000000	79.540	-171.8784
500.000000	79.591	-172.2499
508.000000	79.650	-172.7510
515.000000	79.693	-173.1830
522.000000	79.729	-173.6043
530.000000	79.762	-174.0623
538.000000	79.790	-174.4837
545.000000	79.813	-174.8238
552.000000	79.839	-175.1492
560.000000	79.872	-175.5284
570.000000	79.912	-176.0453
580.000000	79.945	-176.6041
590.000000	79.969	-177.1794
600.000000	79.983	-177.7396
608.000000	79.991	-178.1636
615.000000	79.997	-178.5214
622.000000	80.002	-178.8780
630.000000	80.007	-179.2946
640.000000	80.009	-179.8253
650.000000	80.004	179.6526
660.000000	79.993	179.1566
670.000000	79.978	178.6971
680.000000	79.963	178.2728
690.000000	79.951	177.8655
700.000000	79.941	177.4483
710.000000	79.933	177.0005
720.000000	79.921	176.5199
730.000000	79.903	176.0209
740.000000	79.879	175.5208
750.000000	79.848	175.0309
762.000000	79.806	174.4573
775.000000	79.753	173.8471
788.000000	79.692	173.2654
800.000000	79.630	172.7546
812.000000	79.562	172.2493
825.000000	79.474	171.7369
838.000000	79.376	171.3230
850.000000	79.285	171.0396
862.000000	79.200	170.8155
875.000000	79.116	170.5906
885.000000	79.055	170.4049
900.000000	78.963	170.0830
912.000000	78.884	169.7916
925.000000	78.787	169.4622
938.000000	78.673	169.1503
950.000000	78.550	168.9203
962.000000	78.408	168.8083
975.000000	78.241	168.9118
988.000000	78.077	169.3154
1000.000000	77.951	169.9227
1015.000000	77.852	170.8136
1030.000000	77.815	171.5898
1044.000000	77.812	172.0434
1060.000000	77.805	172.2191
1075.000000	77.768	172.1875
1090.000000	77.694	172.1592
1106.000000	77.589	172.2971
1120.000000	77.493	172.6155
1138.000000	77.391	173.2584
1150.000000	77.349	173.7551
1172.000000	77.325	174.5239
1180.000000	77.326	174.6973
1206.000000	77.308	174.8948
1220.000000	77.269	174.9290
1241.000000	77.192	175.0860
1250.000000	77.159	175.1848
1265.000000	77.108	175.3374
1280.000000	77.056	175.4326
1315.000000	76.882	175.5756
1320.000000	76.850	175.6201
1340.000000	76.715	175.9052
1360.000000	76.574	176.3393
1380.000000	76.431	176.9014
1400.000000	76.288	177.6052
1430.000000	76.088	178.9351
1450.000000	75.974	179.9615
1475.000000	75.853	-178.6827
1500.000000	75.752	-177.2952
1525.000000	75.661	-175.8422
1550.000000	75.585	-174.2893
1575.000000	75.534	-172.6661
1600.000000	75.512	-171.0445
1625.000000	75.511	-169.5080
1650.000000	75.512	-168.0688
1675.000000	75.504	-166.5989
1700.000000	75.501	-164.9531
1725.000000	75.531	-163.1176
1750.000000	75.618	-161.2329
1775.000000	75.763	-159.5573
1800.000000	75.932	-158.3206
1825.000000	76.071	-157.5002
1850.000000	76.158	-156.8110
1875.000000	76.208	-155.9816
1900.000000	76.254	-154.9443
1925.000000	76.312	-153.7672
1950.000000	76.386	-152.5188
1975.000000	76.477	-151.2384
2000.000000	76.583	-149.9611
2030.000000	76.725	-148.4628
2060.000000	76.877	-146.9764
2090.000000	77.043	-145.4341
2120.000000	77.240	-143.8090
2140.000000	77.398	-142.7065
2180.000000	77.792	-140.6430
2200.000000	78.024	-139.8026
2240.000000	78.519	-138.7831
2270.000000	78.867	-138.6316
2300.000000	79.165	-138.8384
2330.000000	79.408	-139.1713
2360.000000	79.614	-139.4583
2400.000000	79.863	-139.6841
2430.000000	80.048	-139.7747
2470.000000	80.297	-139.8728
2500.000000	80.487	-139.9731
2540.000000	80.742	-140.1900
2580.000000	80.991	-140.5215
2620.000000	81.229	-140.9436
2650.000000	81.399	-141.2954
2690.000000	81.620	-141.7867
2720.000000	81.784	-142.1671
2760.000000	82.004	-142.7105
2800.000000	82.226	-143.3334
2850.000000	82.501	-144.2543
2900.000000	82.769	-145.3297
2950.000000	83.030	-146.5688
3000.000000	83.280	-147.9922
3040.000000	83.468	-149.2673
3070.000000	83.599	-150.2990
3110.000000	83.761	-151.7595
3150.000000	83.907	-153.2900
3200.000000	84.075	-155.2836
3250.000000	84.235	-157.4430
3300.000000	84.372	-159.8846
3350.000000	84.461	-162.5960
3400.000000	84.486	-165.4503
3450.000000	84.446	-168.3070
3500.000000	84.346	-171.0422
3550.000000	84.197	-173.5556
3600.000000	84.018	-175.8039
3650.000000	83.825	-177.8430
3700.000000	83.623	-179.7711
3750.000000	83.401	178.3853
3820.000000	83.046	176.0374
3870.000000	82.762	174.6117
3950.000000	82.274	172.8839
4000.000000	81.961	172.1738
4060.000000	81.593	171.6849
4120.000000	81.244	171.5490
4180.000000	80.924	171.7056
4250.000000	80.595	172.1846
4310.000000	80.352	172.8020
4370.000000	80.150	173.5694
4440.000000	79.967	174.5963
4500.000000	79.853	175.5562
4550.000000	79.787	176.4085
4620.000000	79.745	177.6882
4680.000000	79.761	178.8573
4750.000000	79.854	-179.7399
4820.000000	80.039	-178.3803
4870.000000	80.232	-177.4961
4940.000000	80.594	-176.4771
5000.000000	80.996	-175.9127
5080.000000	81.665	-175.8408
5150.000000	82.363	-176.7187
5220.000000	83.130	-178.8531
5300.000000	84.007	176.6623
5380.000000	84.748	169.5926
5450.000000	85.163	161.3537
5520.000000	85.270	151.8091
5600.000000	84.965	140.6337
5700.000000	83.983	128.6190
5800.000000	82.518	120.4531
5900.000000	80.828	116.1993
6000.000000	79.127	114.9787
6080.000000	77.852	115.5356
6150.000000	76.828	116.8015
6220.000000	75.898	118.5761
6300.000000	74.952	120.9977
6400.000000	73.928	124.2635
6500.000000	73.026	127.4868
6600.000000	72.150	130.7342
6700.000000	71.199	134.7540
6800.000000	70.155	140.8979
6900.000000	69.225	150.2945
7000.000000	68.917	162.3268
7100.000000	69.564	174.0166
7200.000000	70.777	-177.9593
7300.000000	72.003	-174.7457
7400.000000	72.997	-175.3689
7500.000000	73.730	-178.3570
7620.000000	74.308	176.2592
7750.000000	74.579	169.0190
7880.000000	74.453	161.1857
8000.000000	73.997	154.5536
8120.000000	73.328	149.1946
8250.000000	72.547	144.3950
8380.000000	71.811	139.2574
8500.000000	71.089	133.3324
8620.000000	70.150	126.6828
8750.000000	68.733	120.4492
8850.000000	67.335	117.7217
9000.000000	64.824	118.7212
9120.000000	62.579	125.0110
9250.000000	60.134	138.5268
9380.000000	58.368	158.0457
9500.000000	58.276	177.0259
9620.000000	59.487	-167.7427
9750.000000	61.236	-157.4911
9880.000000	62.876	-152.8260
10000.000000	64.162	-151.8680
10150.000000	65.479	-152.9713
10300.000000	66.616	-154.6166
10440.000000	67.698	-155.7439
10600.000000	69.114	-156.7764
10750.000000	70.640	-158.4360
10900.000000	72.274	-161.8339
11060.000000	73.969	-168.5578
11200.000000	75.218	-178.0058
11380.000000	76.192	164.8631
11500.000000	76.334	151.6791
11720.000000	75.536	129.3487
11800.000000	74.945	123.1356
12060.000000	72.384	113.0271
12200.000000	71.153	111.9988
12410.000000	70.420	107.4869
12500.000000	70.419	102.0129
12650.000000	70.385	86.0779
12800.000000	69.925	60.5772
13150.000000	66.387	-40.0618
13200.000000	65.688	-58.5956
13400.000000	63.387	-132.8479
13600.000000	63.065	168.2025
13800.000000	63.846	128.7828
14000.000000	64.411	100.9697
14300.000000	64.142	69.3082
14500.000000	63.219	55.4359
14750.000000	61.995	49.9146
15000.000000	62.241	49.2836
15250.000000	63.115	39.5853
15500.000000	63.137	24.8809
15750.000000	62.881	15.5021
16000.000000	63.561	8.7939
16250.000000	64.793	-3.1870
16500.000000	65.739	-22.0237
16750.000000	66.215	-45.3402
17000.000000	66.260	-71.7415
17250.000000	65.816	-100.5541
17500.000000	64.790	-130.0437
17750.000000	63.215	-158.0287
18000.000000	61.325	176.0764
18250.000000	59.572	150.2095
18500.000000	58.399	121.0082
18750.000000	57.818	86.4120
19000.000000	57.476	46.6167
19250.000000	57.031	3.9043
19500.000000	56.354	-37.4399
19750.000000	55.569	-71.5344
