* Measurement data measured by REW V5.20.13
* Source: EXCL: Headset (USB-C to 3.5mm Headphone Jack Adapter), MICROPHONE (Master Volume), 0, volume: 0.260
* Format: 256k Log Swept Sine, 1 sweep at -12.0 dBFS with no timing reference
* Dated: Dec 29, 2023 3:40:40 PM
* REW Settings:
*  C-weighting compensation: Off
*  Target level: 75.0 dB
* Note: Headamame Open Solid leather pads
* Measurement: HO SL Pads 40mm Peerless
* Smoothing: 1/12 octave
* Frequency Step: 1/48 octave
* Start Frequency: 20.000 Hz
*
* Freq(Hz)	SPL(dB)	Phase(degrees)
20.000000	74.817	-177.7103
20.299999	75.097	-179.2651
20.600000	75.368	179.1144
20.900000	75.624	177.4374
21.200001	75.861	175.7384
21.400000	76.010	174.6179
21.799999	76.289	172.4590
22.000000	76.424	171.4319
22.400000	76.694	169.4679
22.700001	76.901	168.0347
23.000000	77.111	166.5962
23.299999	77.318	165.1307
23.600000	77.519	163.6398
24.000000	77.772	161.6551
24.299999	77.951	160.2117
24.700001	78.182	158.3885
25.000000	78.355	157.0961
25.400000	78.589	155.4404
25.799999	78.824	153.8173
26.200001	79.053	152.2085
26.500000	79.219	151.0231
26.900000	79.432	149.4990
27.200001	79.588	148.4105
27.600000	79.794	147.0263
28.000000	80.001	145.6912
28.500000	80.260	144.0363
29.000000	80.509	142.3649
29.500000	80.745	140.6905
30.000000	80.968	139.0460
30.400000	81.141	137.7579
30.700001	81.269	136.7988
31.100000	81.439	135.5098
31.500000	81.606	134.1869
32.000000	81.802	132.4792
32.500000	81.980	130.7508
33.000000	82.143	129.0737
33.500000	82.302	127.4849
34.000000	82.465	125.9508
34.500000	82.634	124.4030
35.000000	82.800	122.8037
35.500000	82.954	121.1773
36.000000	83.096	119.5831
36.500000	83.229	118.0627
37.000000	83.360	116.6187
37.500000	83.493	115.2291
38.200001	83.681	113.3276
38.700001	83.816	111.9740
39.500000	84.022	109.7932
40.000000	84.142	108.4318
40.599998	84.276	106.8219
41.200001	84.403	105.2437
41.799999	84.524	103.6882
42.500000	84.656	101.8962
43.099998	84.762	100.3850
43.700001	84.862	98.8979
44.400002	84.972	97.1912
45.000000	85.060	95.7591
45.500000	85.129	94.5953
46.200001	85.220	93.0180
46.799999	85.295	91.7134
47.500000	85.377	90.2441
48.200001	85.455	88.8293
48.700001	85.507	87.8502
49.400002	85.573	86.5278
50.000000	85.623	85.4514
50.799999	85.687	84.1130
51.500000	85.746	83.0097
52.200001	85.810	81.9189
53.000000	85.883	80.6578
53.799999	85.952	79.4133
54.500000	86.015	78.3695
55.200001	86.084	77.3690
56.000000	86.176	76.2543
57.000000	86.307	74.8671
58.000000	86.452	73.4553
59.000000	86.601	71.9104
60.000000	86.715	70.2020
60.799999	86.768	68.8889
61.500000	86.799	67.8661
62.200001	86.830	66.9240
63.000000	86.867	65.8658
64.000000	86.911	64.5156
65.000000	86.952	63.1222
66.000000	86.985	61.6942
67.000000	87.009	60.2781
68.000000	87.027	58.9188
69.000000	87.037	57.6398
70.000000	87.039	56.4617
71.000000	87.032	55.4160
72.000000	87.021	54.5203
73.000000	87.014	53.7584
74.000000	87.012	53.0967
75.000000	87.019	52.5195
76.199997	87.042	51.9359
77.500000	87.097	51.3752
78.800003	87.179	50.7725
80.000000	87.269	50.1192
81.199997	87.361	49.3680
82.500000	87.456	48.4646
83.800003	87.544	47.5115
85.000000	87.622	46.6322
86.199997	87.700	45.7725
87.500000	87.789	44.8628
88.500000	87.861	44.1762
90.000000	87.975	43.1479
91.199997	88.070	42.3004
92.500000	88.173	41.3378
93.800003	88.271	40.3243
95.000000	88.355	39.3469
96.199997	88.435	38.3326
97.500000	88.517	37.1921
98.800003	88.593	36.0130
100.000000	88.658	34.9022
101.500000	88.731	33.5030
103.000000	88.795	32.1087
104.400002	88.843	30.8271
106.000000	88.883	29.4030
107.500000	88.910	28.1137
109.000000	88.926	26.8672
110.599998	88.935	25.5876
112.000000	88.936	24.5176
113.800003	88.929	23.2153
115.000000	88.920	22.3933
117.199997	88.897	21.0021
118.000000	88.891	20.5462
120.599998	88.898	19.2494
122.000000	88.925	18.6007
124.099998	88.980	17.6124
125.000000	89.006	17.1819
126.500000	89.049	16.4490
128.000000	89.093	15.6846
131.500000	89.196	13.7573
132.000000	89.211	13.4708
134.000000	89.269	12.3105
136.000000	89.325	11.1247
138.000000	89.376	9.9072
140.000000	89.422	8.6634
143.000000	89.482	6.7668
145.000000	89.514	5.4866
147.500000	89.545	3.8754
150.000000	89.566	2.2628
152.500000	89.578	0.6573
155.000000	89.582	-0.9336
157.500000	89.577	-2.4885
160.000000	89.560	-3.9833
162.500000	89.533	-5.4218
165.000000	89.505	-6.8281
167.500000	89.479	-8.2172
170.000000	89.453	-9.5694
172.500000	89.424	-10.8586
175.000000	89.397	-12.0903
177.500000	89.377	-13.2948
180.000000	89.362	-14.5056
182.500000	89.351	-15.7474
185.000000	89.342	-17.0383
187.500000	89.332	-18.3896
190.000000	89.317	-19.8005
192.500000	89.294	-21.2612
195.000000	89.261	-22.7588
197.500000	89.217	-24.2825
200.000000	89.161	-25.8230
203.000000	89.076	-27.6777
206.000000	88.971	-29.5177
209.000000	88.844	-31.3120
212.000000	88.691	-33.0048
214.000000	88.576	-34.0389
218.000000	88.331	-35.7946
220.000000	88.212	-36.5145
224.000000	88.004	-37.7614
227.000000	87.877	-38.6590
230.000000	87.768	-39.6151
233.000000	87.669	-40.6735
236.000000	87.567	-41.8424
240.000000	87.411	-43.5131
243.000000	87.272	-44.7781
247.000000	87.063	-46.4000
250.000000	86.892	-47.5407
254.000000	86.651	-48.9419
258.000000	86.400	-50.2003
262.000000	86.143	-51.3320
265.000000	85.947	-52.1116
269.000000	85.682	-53.0598
272.000000	85.480	-53.6945
276.000000	85.208	-54.4273
280.000000	84.934	-55.0224
285.000000	84.595	-55.5741
290.000000	84.264	-55.9354
295.000000	83.947	-56.1320
300.000000	83.643	-56.1907
304.000000	83.410	-56.1639
307.000000	83.240	-56.1077
311.000000	83.020	-55.9858
315.000000	82.809	-55.8096
320.000000	82.556	-55.5015
325.000000	82.315	-55.0817
330.000000	82.090	-54.5527
335.000000	81.884	-53.9367
340.000000	81.697	-53.2621
345.000000	81.532	-52.5456
350.000000	81.390	-51.7927
355.000000	81.270	-51.0167
360.000000	81.174	-50.2529
365.000000	81.102	-49.5404
370.000000	81.054	-48.9102
375.000000	81.025	-48.3939
382.000000	81.007	-47.9100
387.000000	80.999	-47.7445
395.000000	80.976	-47.7547
400.000000	80.950	-47.8918
406.000000	80.902	-48.1416
412.000000	80.834	-48.4420
418.000000	80.747	-48.7480
425.000000	80.626	-49.0497
431.000000	80.510	-49.2235
437.000000	80.389	-49.3123
444.000000	80.245	-49.3196
450.000000	80.123	-49.2502
455.000000	80.023	-49.1426
462.000000	79.889	-48.9271
468.000000	79.779	-48.6940
475.000000	79.659	-48.3801
482.000000	79.547	-48.0342
487.000000	79.471	-47.7697
494.000000	79.368	-47.3674
500.000000	79.285	-46.9855
508.000000	79.185	-46.4306
515.000000	79.108	-45.9203
522.000000	79.039	-45.3785
530.000000	78.974	-44.6895
538.000000	78.938	-43.9492
545.000000	78.934	-43.3295
552.000000	78.952	-42.7937
560.000000	78.989	-42.3119
570.000000	79.055	-41.9317
580.000000	79.133	-41.8579
590.000000	79.202	-42.1000
600.000000	79.245	-42.5905
608.000000	79.255	-43.0977
615.000000	79.246	-43.5739
622.000000	79.221	-44.0406
630.000000	79.177	-44.5300
640.000000	79.108	-45.0581
650.000000	79.032	-45.5117
660.000000	78.954	-45.9333
670.000000	78.869	-46.3448
680.000000	78.778	-46.7413
690.000000	78.681	-47.1197
700.000000	78.575	-47.4753
710.000000	78.460	-47.7896
720.000000	78.338	-48.0435
730.000000	78.210	-48.2256
740.000000	78.078	-48.3273
750.000000	77.946	-48.3443
762.000000	77.789	-48.2439
775.000000	77.628	-47.9733
788.000000	77.495	-47.5782
800.000000	77.404	-47.2032
812.000000	77.343	-46.9434
825.000000	77.291	-46.9129
838.000000	77.226	-47.1498
850.000000	77.135	-47.4965
862.000000	77.010	-47.8418
875.000000	76.841	-48.1146
885.000000	76.695	-48.2080
900.000000	76.455	-48.1047
912.000000	76.255	-47.7755
925.000000	76.044	-47.1418
938.000000	75.860	-46.2288
950.000000	75.735	-45.2463
962.000000	75.659	-44.3125
975.000000	75.615	-43.5192
988.000000	75.581	-42.9875
1000.000000	75.541	-42.6749
1015.000000	75.465	-42.3997
1030.000000	75.360	-42.0949
1044.000000	75.254	-41.7197
1060.000000	75.137	-41.2686
1075.000000	75.020	-40.8624
1090.000000	74.885	-40.3331
1106.000000	74.754	-39.5421
1120.000000	74.677	-38.8334
1138.000000	74.604	-38.2086
1150.000000	74.544	-37.9680
1172.000000	74.380	-37.6035
1180.000000	74.306	-37.4455
1206.000000	74.019	-36.7361
1220.000000	73.839	-36.1402
1241.000000	73.561	-34.8392
1250.000000	73.448	-34.1495
1265.000000	73.274	-32.8862
1280.000000	73.119	-31.5419
1315.000000	72.794	-28.3029
1320.000000	72.746	-27.8077
1340.000000	72.560	-25.6338
1360.000000	72.401	-23.1891
1380.000000	72.277	-20.6006
1400.000000	72.186	-17.8929
1430.000000	72.110	-13.5813
1450.000000	72.100	-10.5203
1475.000000	72.152	-6.4131
1500.000000	72.310	-2.1193
1525.000000	72.572	2.1227
1550.000000	72.944	6.3416
1575.000000	73.463	10.3468
1600.000000	74.096	13.6423
1625.000000	74.787	16.1025
1650.000000	75.503	17.7114
1675.000000	76.210	18.5357
1700.000000	76.909	18.7281
1725.000000	77.591	18.1935
1750.000000	78.219	16.9037
1775.000000	78.784	15.0217
1800.000000	79.282	12.5444
1825.000000	79.676	9.3895
1850.000000	79.909	5.7447
1875.000000	79.946	2.1852
1900.000000	79.809	-0.4689
1925.000000	79.617	-1.6517
1950.000000	79.532	-1.7323
1975.000000	79.606	-1.7881
2000.000000	79.737	-2.4844
2030.000000	79.839	-3.9297
2060.000000	79.857	-5.3798
2090.000000	79.839	-6.5098
2120.000000	79.829	-7.4481
2140.000000	79.824	-8.1005
2180.000000	79.768	-9.4697
2200.000000	79.710	-10.0558
2240.000000	79.559	-10.7817
2270.000000	79.448	-10.9288
2300.000000	79.359	-10.8228
2330.000000	79.300	-10.5890
2360.000000	79.266	-10.3475
2400.000000	79.231	-10.0541
2430.000000	79.204	-9.7654
2470.000000	79.177	-9.1931
2500.000000	79.175	-8.6196
2540.000000	79.212	-7.6977
2580.000000	79.309	-6.7236
2620.000000	79.467	-5.8812
2650.000000	79.616	-5.4106
2690.000000	79.845	-5.0574
2720.000000	80.032	-5.0312
2760.000000	80.289	-5.3505
2800.000000	80.539	-6.0977
2850.000000	80.811	-7.6351
2900.000000	81.002	-9.7083
2950.000000	81.097	-12.0325
3000.000000	81.113	-14.4167
3040.000000	81.078	-16.3715
3070.000000	81.021	-17.8979
3110.000000	80.889	-20.0042
3150.000000	80.669	-22.0482
3200.000000	80.265	-24.1127
3250.000000	79.752	-25.2925
3300.000000	79.169	-25.4440
3350.000000	78.546	-24.3502
3400.000000	77.949	-21.8016
3450.000000	77.494	-17.9510
3500.000000	77.290	-13.3486
3550.000000	77.383	-8.8348
3600.000000	77.710	-5.2798
3650.000000	78.133	-3.1725
3700.000000	78.527	-2.4561
3750.000000	78.824	-2.7043
3820.000000	79.065	-3.8202
3870.000000	79.131	-4.8261
3950.000000	79.063	-6.4403
4000.000000	78.918	-7.2269
4060.000000	78.660	-7.7757
4120.000000	78.319	-7.8032
4180.000000	77.891	-7.0690
4250.000000	77.318	-4.7568
4310.000000	76.847	-1.2763
4370.000000	76.517	3.4023
4440.000000	76.425	9.3735
4500.000000	76.542	13.9347
4550.000000	76.675	17.1874
4620.000000	76.833	21.4626
4680.000000	76.958	25.4211
4750.000000	77.165	30.7412
4820.000000	77.540	36.8649
4870.000000	77.973	41.6067
4940.000000	78.864	48.3579
5000.000000	79.899	53.8038
5080.000000	81.619	59.9334
5150.000000	83.362	63.6854
5220.000000	85.184	65.1560
5300.000000	87.115	62.9985
5380.000000	88.667	56.7173
5450.000000	89.669	49.0336
5520.000000	90.395	40.5944
5600.000000	90.980	30.8285
5700.000000	91.406	18.4518
5800.000000	91.416	5.9014
5900.000000	90.929	-5.5028
6000.000000	90.001	-13.9135
6080.000000	89.070	-17.7382
6150.000000	88.251	-19.0355
6220.000000	87.549	-18.8942
6300.000000	87.009	-17.8440
6400.000000	86.773	-16.7643
6500.000000	86.855	-17.4202
6600.000000	86.973	-20.3495
6700.000000	86.909	-24.9996
6800.000000	86.567	-30.2346
6900.000000	85.934	-34.8493
7000.000000	85.066	-37.9259
7100.000000	84.060	-39.0610
7200.000000	83.034	-38.3749
7300.000000	82.088	-36.3056
7400.000000	81.273	-33.3267
7500.000000	80.594	-29.6421
7620.000000	79.990	-24.1023
7750.000000	79.818	-17.0446
7880.000000	80.306	-11.2814
8000.000000	81.010	-9.6906
8120.000000	81.500	-12.0316
8250.000000	81.529	-16.7824
8380.000000	81.035	-20.7334
8500.000000	80.276	-21.7365
8620.000000	79.503	-19.7571
8750.000000	79.055	-15.5016
8850.000000	79.157	-12.4213
9000.000000	79.810	-11.4733
9120.000000	80.284	-15.4583
9250.000000	80.317	-23.5307
9380.000000	79.675	-32.2324
9500.000000	78.496	-37.6780
9620.000000	76.853	-38.5794
9750.000000	74.729	-33.4241
9880.000000	72.566	-22.4327
10000.000000	71.022	-9.1103
10150.000000	70.380	7.8199
10300.000000	70.991	21.3164
10440.000000	71.948	29.5989
10600.000000	73.000	35.1160
10750.000000	73.901	38.2763
10900.000000	74.850	40.5872
11060.000000	76.065	42.1058
11200.000000	77.295	41.6515
11380.000000	78.806	36.2289
11500.000000	79.507	28.7822
11720.000000	79.709	10.2007
11800.000000	79.413	3.5421
12060.000000	77.433	-11.7536
12200.000000	76.073	-16.1642
12410.000000	74.349	-23.2714
12500.000000	73.852	-28.7784
12650.000000	73.315	-44.2054
12800.000000	73.009	-69.3790
13150.000000	73.462	-159.2808
13200.000000	73.719	-173.2896
13400.000000	74.945	134.9802
13600.000000	75.957	93.3431
13800.000000	76.414	60.8499
14000.000000	76.279	34.3853
14300.000000	75.159	-0.2456
14500.000000	74.000	-24.3912
14750.000000	72.343	-61.8829
15000.000000	70.819	-110.7520
15250.000000	70.011	-166.4092
15500.000000	69.894	142.1150
15750.000000	69.758	103.5588
16000.000000	69.371	80.2610
16250.000000	69.349	68.9656
16500.000000	70.178	60.7712
16750.000000	71.173	47.8575
17000.000000	71.654	29.5300
17250.000000	71.440	9.0011
17500.000000	70.544	-10.1567
17750.000000	69.045	-24.7384
18000.000000	67.246	-33.2572
18250.000000	65.907	-37.8215
18500.000000	65.904	-43.1234
18750.000000	67.098	-54.1470
19000.000000	68.566	-74.3352
19250.000000	69.672	-103.8115
19500.000000	70.227	-138.3730
19750.000000	70.342	-170.2233
