* Measurement data measured by REW V5.20.13
* Source: EXCL: Headset (USB-C to 3.5mm Headphone Jack Adapter), MICROPHONE (Master Volume), 0, volume: 0.260
* Format: 256k Log Swept Sine, 1 sweep at -12.0 dBFS with no timing reference
* Dated: Dec 29, 2023 4:04:10 PM
* REW Settings:
*  C-weighting compensation: Off
*  Target level: 75.0 dB
* Note: Headamame Open Perforated leather pads
* Measurement: HO PL Pads 40mm BDNC
* Smoothing: 1/12 octave
* Frequency Step: 1/48 octave
* Start Frequency: 20.000 Hz
*
* Freq(Hz)	SPL(dB)	Phase(degrees)
20.000000	67.850	-159.0014
20.299999	68.097	-160.4517
20.600000	68.346	-161.7754
20.900000	68.603	-163.0065
21.200001	68.872	-164.1958
21.400000	69.057	-164.9928
21.799999	69.431	-166.6465
22.000000	69.617	-167.5145
22.400000	69.979	-169.3252
22.700001	70.236	-170.7216
23.000000	70.481	-172.1194
23.299999	70.715	-173.4929
23.600000	70.939	-174.8243
24.000000	71.229	-176.5216
24.299999	71.442	-177.7387
24.700001	71.725	-179.3017
25.000000	71.936	179.5561
25.400000	72.216	178.0531
25.799999	72.492	176.5581
26.200001	72.761	175.0718
26.500000	72.957	173.9711
26.900000	73.211	172.5350
27.200001	73.398	171.4860
27.600000	73.641	170.1227
28.000000	73.879	168.7959
28.500000	74.166	167.1955
29.000000	74.446	165.6827
29.500000	74.724	164.2541
30.000000	75.005	162.8483
30.400000	75.226	161.6977
30.700001	75.384	160.8197
31.100000	75.583	159.6616
31.500000	75.772	158.5716
32.000000	76.009	157.3459
32.500000	76.264	156.2070
33.000000	76.539	154.9902
33.500000	76.815	153.5783
34.000000	77.069	151.9924
34.500000	77.292	150.3559
35.000000	77.492	148.7958
35.500000	77.686	147.3613
36.000000	77.886	146.0181
36.500000	78.093	144.6984
37.000000	78.302	143.3560
37.500000	78.505	141.9956
38.200001	78.775	140.1478
38.700001	78.965	138.9114
39.500000	79.276	137.0082
40.000000	79.469	135.7971
40.599998	79.687	134.3228
41.200001	79.891	132.8888
41.799999	80.090	131.5161
42.500000	80.323	129.9137
43.099998	80.516	128.4755
43.700001	80.693	127.0004
44.400002	80.884	125.3266
45.000000	81.046	123.9719
45.500000	81.185	122.8798
46.200001	81.390	121.3467
46.799999	81.568	119.9908
47.500000	81.767	118.3692
48.200001	81.949	116.7703
48.700001	82.071	115.6871
49.400002	82.239	114.2769
50.000000	82.387	113.1275
50.799999	82.587	111.5580
51.500000	82.750	110.0892
52.200001	82.890	108.5816
53.000000	83.027	106.9295
53.799999	83.159	105.4104
54.500000	83.285	104.1646
55.200001	83.428	102.9516
56.000000	83.612	101.5453
57.000000	83.860	99.6803
58.000000	84.106	97.6965
59.000000	84.331	95.5948
60.000000	84.500	93.4501
60.799999	84.594	91.8894
61.500000	84.667	90.6868
62.200001	84.744	89.5658
63.000000	84.836	88.2945
64.000000	84.959	86.6683
65.000000	85.091	84.9628
66.000000	85.226	83.1553
67.000000	85.356	81.2987
68.000000	85.478	79.4684
69.000000	85.594	77.6929
70.000000	85.703	75.9539
71.000000	85.799	74.2250
72.000000	85.877	72.5032
73.000000	85.939	70.8201
74.000000	85.992	69.1992
75.000000	86.042	67.6344
76.199997	86.101	65.8254
77.500000	86.164	63.9486
78.800003	86.222	62.1511
80.000000	86.268	60.5456
81.199997	86.307	58.9644
82.500000	86.341	57.2678
83.800003	86.372	55.5819
85.000000	86.400	54.0327
86.199997	86.427	52.5069
87.500000	86.453	50.9053
88.500000	86.470	49.7202
90.000000	86.489	48.0214
91.199997	86.497	46.7236
92.500000	86.499	45.3730
93.800003	86.497	44.0811
95.000000	86.495	42.9407
96.199997	86.496	41.8479
97.500000	86.502	40.7071
98.800003	86.513	39.5993
100.000000	86.527	38.5996
101.500000	86.547	37.3659
103.000000	86.570	36.1295
104.400002	86.592	34.9564
106.000000	86.614	33.5896
107.500000	86.630	32.3083
109.000000	86.641	31.0576
110.599998	86.648	29.7678
112.000000	86.649	28.6632
113.800003	86.642	27.2454
115.000000	86.633	26.2968
117.199997	86.616	24.5541
118.000000	86.611	23.9246
120.599998	86.600	22.0209
122.000000	86.603	21.1025
124.099998	86.611	19.7801
125.000000	86.613	19.2198
126.500000	86.612	18.2883
128.000000	86.609	17.3560
131.500000	86.602	15.1646
132.000000	86.601	14.8490
134.000000	86.597	13.5776
136.000000	86.589	12.2881
138.000000	86.575	10.9855
140.000000	86.553	9.6898
143.000000	86.507	7.8135
145.000000	86.468	6.6213
147.500000	86.412	5.1910
150.000000	86.351	3.8271
152.500000	86.292	2.5358
155.000000	86.236	1.3264
157.500000	86.179	0.1735
160.000000	86.120	-0.9851
162.500000	86.060	-2.1776
165.000000	86.001	-3.3739
167.500000	85.944	-4.5256
170.000000	85.885	-5.6244
172.500000	85.823	-6.6826
175.000000	85.758	-7.7045
177.500000	85.691	-8.6932
180.000000	85.623	-9.6586
182.500000	85.552	-10.6071
185.000000	85.481	-11.5354
187.500000	85.410	-12.4392
190.000000	85.340	-13.3181
192.500000	85.267	-14.1729
195.000000	85.192	-15.0054
197.500000	85.116	-15.8174
200.000000	85.039	-16.6075
203.000000	84.946	-17.5234
206.000000	84.854	-18.4086
209.000000	84.762	-19.2752
212.000000	84.668	-20.1297
214.000000	84.602	-20.6904
218.000000	84.459	-21.7520
220.000000	84.383	-22.2251
224.000000	84.230	-23.0112
227.000000	84.127	-23.4890
230.000000	84.038	-23.9365
233.000000	83.958	-24.3918
236.000000	83.880	-24.8456
240.000000	83.778	-25.4053
243.000000	83.711	-25.7937
247.000000	83.635	-26.3267
250.000000	83.586	-26.7750
254.000000	83.522	-27.4407
258.000000	83.454	-28.1423
262.000000	83.380	-28.8494
265.000000	83.321	-29.3796
269.000000	83.239	-30.0840
272.000000	83.177	-30.6095
276.000000	83.093	-31.3036
280.000000	83.008	-31.9863
285.000000	82.901	-32.8221
290.000000	82.791	-33.6383
295.000000	82.676	-34.4293
300.000000	82.560	-35.1888
304.000000	82.468	-35.7906
307.000000	82.398	-36.2435
311.000000	82.302	-36.8448
315.000000	82.203	-37.4349
320.000000	82.077	-38.1458
325.000000	81.946	-38.8154
330.000000	81.812	-39.4339
335.000000	81.678	-40.0015
340.000000	81.544	-40.5355
345.000000	81.411	-41.0526
350.000000	81.277	-41.5447
355.000000	81.141	-41.9939
360.000000	81.003	-42.3988
365.000000	80.866	-42.7688
370.000000	80.731	-43.1120
375.000000	80.595	-43.4304
382.000000	80.400	-43.8173
387.000000	80.260	-44.0326
395.000000	80.042	-44.2622
400.000000	79.912	-44.3512
406.000000	79.764	-44.4310
412.000000	79.624	-44.4975
418.000000	79.488	-44.5492
425.000000	79.332	-44.5753
431.000000	79.201	-44.5661
437.000000	79.071	-44.5277
444.000000	78.925	-44.4388
450.000000	78.807	-44.3254
455.000000	78.716	-44.2153
462.000000	78.598	-44.0630
468.000000	78.507	-43.9529
475.000000	78.408	-43.8619
482.000000	78.314	-43.8264
487.000000	78.247	-43.8378
494.000000	78.149	-43.8903
500.000000	78.059	-43.9504
508.000000	77.932	-44.0214
515.000000	77.815	-44.0487
522.000000	77.694	-44.0272
530.000000	77.555	-43.9363
538.000000	77.419	-43.7855
545.000000	77.303	-43.6193
552.000000	77.192	-43.4282
560.000000	77.071	-43.1829
570.000000	76.927	-42.8375
580.000000	76.793	-42.4603
590.000000	76.667	-42.0925
600.000000	76.540	-41.7238
608.000000	76.441	-41.3895
615.000000	76.360	-41.0797
622.000000	76.286	-40.7866
630.000000	76.209	-40.4889
640.000000	76.117	-40.1487
650.000000	76.025	-39.8300
660.000000	75.931	-39.5380
670.000000	75.829	-39.2330
680.000000	75.721	-38.8663
690.000000	75.614	-38.4127
700.000000	75.518	-37.8895
710.000000	75.438	-37.3609
720.000000	75.371	-36.8969
730.000000	75.304	-36.5044
740.000000	75.229	-36.1207
750.000000	75.150	-35.6754
762.000000	75.063	-35.0288
775.000000	74.995	-34.2505
788.000000	74.968	-33.5642
800.000000	74.964	-33.1484
812.000000	74.958	-32.9365
825.000000	74.937	-32.8718
838.000000	74.895	-32.9382
850.000000	74.833	-33.0779
862.000000	74.743	-33.2272
875.000000	74.614	-33.2878
885.000000	74.502	-33.1932
900.000000	74.338	-32.8177
912.000000	74.227	-32.4283
925.000000	74.123	-32.0426
938.000000	74.027	-31.7397
950.000000	73.939	-31.5458
962.000000	73.847	-31.4432
975.000000	73.734	-31.4437
988.000000	73.595	-31.5573
1000.000000	73.432	-31.7302
1015.000000	73.161	-31.9107
1030.000000	72.796	-31.7102
1044.000000	72.388	-30.7336
1060.000000	71.933	-28.4520
1075.000000	71.623	-25.5407
1090.000000	71.465	-22.5079
1106.000000	71.424	-19.6639
1120.000000	71.436	-17.6719
1138.000000	71.441	-15.6594
1150.000000	71.420	-14.4689
1172.000000	71.342	-12.2095
1180.000000	71.311	-11.3333
1206.000000	71.210	-8.4056
1220.000000	71.147	-6.7222
1241.000000	71.061	-3.8129
1250.000000	71.043	-2.4247
1265.000000	71.049	-0.0091
1280.000000	71.105	2.4271
1315.000000	71.409	7.4946
1320.000000	71.462	8.0800
1340.000000	71.648	10.0862
1360.000000	71.768	11.9045
1380.000000	71.846	13.9828
1400.000000	71.939	16.4630
1430.000000	72.174	20.6788
1450.000000	72.410	23.6080
1475.000000	72.799	27.1338
1500.000000	73.266	30.2877
1525.000000	73.783	33.0184
1550.000000	74.336	35.3874
1575.000000	74.938	37.4398
1600.000000	75.589	38.9673
1625.000000	76.239	39.7839
1650.000000	76.866	40.0743
1675.000000	77.479	39.9330
1700.000000	78.068	39.3356
1725.000000	78.631	38.2980
1750.000000	79.159	36.7638
1775.000000	79.626	34.6356
1800.000000	79.981	31.9677
1825.000000	80.194	29.1379
1850.000000	80.282	26.6439
1875.000000	80.303	24.7751
1900.000000	80.315	23.4479
1925.000000	80.336	22.3985
1950.000000	80.355	21.5013
1975.000000	80.365	20.7590
2000.000000	80.368	20.1750
2030.000000	80.358	19.7025
2060.000000	80.342	19.5619
2090.000000	80.342	19.7947
2120.000000	80.385	20.3104
2140.000000	80.443	20.7214
2180.000000	80.618	21.4973
2200.000000	80.728	21.8107
2240.000000	80.967	22.2018
2270.000000	81.142	22.3021
2300.000000	81.302	22.3463
2330.000000	81.451	22.4396
2360.000000	81.601	22.6334
2400.000000	81.824	23.0248
2430.000000	82.015	23.3693
2470.000000	82.308	23.8209
2500.000000	82.560	24.0693
2540.000000	82.925	24.1425
2580.000000	83.298	23.8480
2620.000000	83.656	23.2547
2650.000000	83.913	22.6884
2690.000000	84.246	21.8015
2720.000000	84.486	21.0396
2760.000000	84.793	19.9384
2800.000000	85.094	18.7794
2850.000000	85.478	17.1639
2900.000000	85.855	15.1897
2950.000000	86.195	12.8132
3000.000000	86.476	10.1528
3040.000000	86.659	7.9172
3070.000000	86.774	6.1915
3110.000000	86.893	3.8303
3150.000000	86.965	1.4597
3200.000000	86.995	-1.3524
3250.000000	86.982	-3.8941
3300.000000	86.946	-6.2040
3350.000000	86.890	-8.3368
3400.000000	86.818	-10.2934
3450.000000	86.737	-12.0739
3500.000000	86.656	-13.7303
3550.000000	86.571	-15.3270
3600.000000	86.478	-16.8736
3650.000000	86.375	-18.3498
3700.000000	86.267	-19.7679
3750.000000	86.153	-21.1694
3820.000000	85.971	-23.1578
3870.000000	85.810	-24.5706
3950.000000	85.484	-26.6110
4000.000000	85.243	-27.6313
4060.000000	84.926	-28.5425
4120.000000	84.588	-29.0797
4180.000000	84.237	-29.1790
4250.000000	83.838	-28.7123
4310.000000	83.529	-27.8896
4370.000000	83.262	-26.7875
4440.000000	83.004	-25.2570
4500.000000	82.829	-23.7942
4550.000000	82.714	-22.4996
4620.000000	82.599	-20.6091
4680.000000	82.539	-18.9297
4750.000000	82.518	-16.8962
4820.000000	82.557	-14.7957
4870.000000	82.628	-13.2871
4940.000000	82.797	-11.2503
5000.000000	83.006	-9.6794
5080.000000	83.364	-8.0165
5150.000000	83.731	-7.0845
5220.000000	84.125	-6.6893
5300.000000	84.591	-6.9059
5380.000000	85.061	-7.8638
5450.000000	85.459	-9.3704
5520.000000	85.823	-11.5657
5600.000000	86.161	-14.9435
5700.000000	86.402	-20.2949
5800.000000	86.381	-26.3643
5900.000000	86.075	-32.3536
6000.000000	85.506	-37.4701
6080.000000	84.903	-40.5540
6150.000000	84.301	-42.4113
6220.000000	83.659	-43.4828
6300.000000	82.906	-43.7942
6400.000000	81.977	-42.9409
6500.000000	81.106	-40.8787
6600.000000	80.333	-37.8066
6700.000000	79.697	-33.9869
6800.000000	79.224	-29.7339
6900.000000	78.916	-25.3416
7000.000000	78.764	-21.0631
7100.000000	78.747	-17.1301
7200.000000	78.832	-13.7203
7300.000000	78.977	-10.8919
7400.000000	79.155	-8.5931
7500.000000	79.354	-6.7357
7620.000000	79.624	-5.0293
7750.000000	79.967	-3.9451
7880.000000	80.345	-3.9521
8000.000000	80.692	-5.2078
8120.000000	80.993	-7.9973
8250.000000	81.177	-13.1964
8380.000000	81.056	-20.7723
8500.000000	80.505	-28.9126
8620.000000	79.393	-35.6503
8750.000000	77.492	-37.0158
8850.000000	75.601	-31.1092
9000.000000	72.665	-10.2529
9120.000000	71.509	11.5054
9250.000000	72.262	31.6357
9380.000000	73.859	43.7979
9500.000000	75.206	48.6048
9620.000000	76.229	49.6028
9750.000000	76.994	48.8510
9880.000000	77.503	47.9113
10000.000000	77.852	47.5986
10150.000000	78.261	48.0948
10300.000000	78.746	49.1296
10440.000000	79.292	49.9706
10600.000000	79.993	50.1588
10750.000000	80.657	49.1951
10900.000000	81.248	46.9846
11060.000000	81.716	43.5004
11200.000000	81.959	40.0424
11380.000000	82.095	36.0029
11500.000000	82.160	33.9132
11720.000000	82.492	30.8267
11800.000000	82.720	29.4503
12060.000000	83.601	20.9929
12200.000000	83.871	13.2930
12410.000000	83.611	0.2344
12500.000000	83.252	-4.5297
12650.000000	82.511	-10.2573
12800.000000	81.953	-14.3516
13150.000000	81.988	-32.2953
13200.000000	82.034	-36.4557
13400.000000	82.157	-56.4431
13600.000000	82.346	-81.0212
13800.000000	82.870	-109.9529
14000.000000	83.769	-142.9729
14300.000000	85.232	162.5201
14500.000000	85.875	125.7723
14750.000000	86.079	82.1910
15000.000000	85.445	43.5914
15250.000000	83.696	17.1401
15500.000000	80.917	10.3907
15750.000000	78.266	13.6481
16000.000000	76.991	11.5713
16250.000000	76.517	3.6741
16500.000000	76.244	-5.9044
16750.000000	76.135	-16.7922
17000.000000	76.077	-30.4435
17250.000000	75.770	-47.2380
17500.000000	74.933	-65.0596
17750.000000	73.548	-81.0400
18000.000000	71.810	-93.9282
18250.000000	69.971	-103.6546
18500.000000	68.464	-111.3586
18750.000000	67.905	-120.1044
19000.000000	68.423	-133.9202
19250.000000	69.393	-155.4453
19500.000000	70.202	176.6533
19750.000000	70.643	148.8384
