* Measurement data measured by REW V5.20.13
* Source: EXCL: Headset (USB-C to 3.5mm Headphone Jack Adapter), MICROPHONE (Master Volume), 0, volume: 0.260
* Format: 256k Log Swept Sine, 1 sweep at -12.0 dBFS with no timing reference
* Dated: Dec 28, 2023 10:49:05 AM
* REW Settings:
*  C-weighting compensation: Off
*  Target level: 75.0 dB
* Note: Perforated Leather Pads
* Measurement: Headamame V1 40mm BDNC
* Smoothing: 1/12 octave
* Frequency Step: 1/48 octave
* Start Frequency: 20.000 Hz
*
* Freq(Hz)	SPL(dB)	Phase(degrees)
20.000000	63.433	-142.3835
20.299999	63.765	-144.1249
20.600000	64.054	-145.8062
20.900000	64.310	-147.2693
21.200001	64.554	-148.4068
21.400000	64.726	-148.9815
21.799999	65.113	-149.8793
22.000000	65.329	-150.3112
22.400000	65.786	-151.3339
22.700001	66.122	-152.3114
23.000000	66.436	-153.4058
23.299999	66.729	-154.5030
23.600000	67.012	-155.5052
24.000000	67.411	-156.6736
24.299999	67.741	-157.5497
24.700001	68.215	-158.9918
25.000000	68.570	-160.4286
25.400000	68.996	-162.8549
25.799999	69.331	-165.6556
26.200001	69.565	-168.4530
26.500000	69.690	-170.3300
26.900000	69.823	-172.3672
27.200001	69.925	-173.5287
27.600000	70.100	-174.7145
28.000000	70.333	-175.7066
28.500000	70.693	-177.0337
29.000000	71.082	-178.6945
29.500000	71.460	179.3138
30.000000	71.804	177.1260
30.400000	72.052	175.3172
30.700001	72.221	173.9605
31.100000	72.425	172.1924
31.500000	72.608	170.5264
32.000000	72.824	168.6582
32.500000	73.047	167.0205
33.000000	73.296	165.4749
33.500000	73.562	163.8566
34.000000	73.823	162.1002
34.500000	74.066	160.2665
35.000000	74.291	158.4545
35.500000	74.505	156.7100
36.000000	74.711	155.0312
36.500000	74.908	153.4285
37.000000	75.100	151.9400
37.500000	75.296	150.5857
38.200001	75.593	148.8216
38.700001	75.819	147.5359
39.500000	76.173	145.3050
40.000000	76.377	143.8446
40.599998	76.604	142.1157
41.200001	76.824	140.4361
41.799999	77.046	138.7452
42.500000	77.299	136.6588
43.099998	77.494	134.7847
43.700001	77.668	132.9292
44.400002	77.859	130.8856
45.000000	78.025	129.2197
45.500000	78.167	127.8412
46.200001	78.360	125.8757
46.799999	78.511	124.1680
47.500000	78.660	122.2258
48.200001	78.784	120.4376
48.700001	78.865	119.2831
49.400002	78.978	117.8099
50.000000	79.076	116.6335
50.799999	79.207	115.1548
51.500000	79.324	113.9461
52.200001	79.450	112.8006
53.000000	79.606	111.5391
53.799999	79.777	110.3157
54.500000	79.940	109.2573
55.200001	80.114	108.1877
56.000000	80.320	106.9579
57.000000	80.592	105.4404
58.000000	80.893	103.8694
59.000000	81.216	101.9813
60.000000	81.507	99.5853
60.799999	81.686	97.4546
61.500000	81.808	95.6117
62.200001	81.916	93.8444
63.000000	82.032	91.8860
64.000000	82.171	89.4741
65.000000	82.301	87.1022
66.000000	82.422	84.7903
67.000000	82.535	82.5432
68.000000	82.640	80.3512
69.000000	82.734	78.1971
70.000000	82.814	76.0728
71.000000	82.878	73.9911
72.000000	82.927	71.9768
73.000000	82.963	70.0571
74.000000	82.991	68.2487
75.000000	83.017	66.5541
76.199997	83.049	64.6470
77.500000	83.087	62.6888
78.800003	83.127	60.8130
80.000000	83.168	59.1271
81.199997	83.213	57.4473
82.500000	83.261	55.6156
83.800003	83.308	53.7831
85.000000	83.352	52.0943
86.199997	83.396	50.3961
87.500000	83.442	48.5359
88.500000	83.472	47.0975
90.000000	83.506	44.9498
91.199997	83.523	43.2522
92.500000	83.533	41.4385
93.800003	83.534	39.6472
95.000000	83.528	38.0102
96.199997	83.514	36.3919
97.500000	83.489	34.6666
98.800003	83.454	32.9759
100.000000	83.413	31.4487
101.500000	83.349	29.5828
103.000000	83.273	27.7676
104.400002	83.190	26.1422
106.000000	83.080	24.4062
107.500000	82.963	22.9276
109.000000	82.833	21.6058
110.599998	82.684	20.3792
112.000000	82.553	19.4879
113.800003	82.399	18.6530
115.000000	82.317	18.3065
117.199997	82.225	17.9868
118.000000	82.209	17.9085
120.599998	82.186	17.5166
122.000000	82.181	17.1874
124.099998	82.200	16.5437
125.000000	82.222	16.1955
126.500000	82.272	15.5052
128.000000	82.331	14.6809
131.500000	82.448	12.3149
132.000000	82.459	11.9401
134.000000	82.482	10.4084
136.000000	82.476	8.9091
138.000000	82.447	7.5162
140.000000	82.404	6.2338
143.000000	82.334	4.4810
145.000000	82.294	3.4148
147.500000	82.251	2.1761
150.000000	82.217	0.9891
152.500000	82.192	-0.2113
155.000000	82.177	-1.4689
157.500000	82.168	-2.8042
160.000000	82.157	-4.2524
162.500000	82.132	-5.8151
165.000000	82.085	-7.4379
167.500000	82.017	-9.0414
170.000000	81.926	-10.5493
172.500000	81.820	-11.9247
175.000000	81.708	-13.1862
177.500000	81.597	-14.3756
180.000000	81.485	-15.5090
182.500000	81.370	-16.5770
185.000000	81.254	-17.5866
187.500000	81.137	-18.5598
190.000000	81.018	-19.5106
192.500000	80.892	-20.4280
195.000000	80.758	-21.2759
197.500000	80.616	-22.0084
200.000000	80.473	-22.5905
203.000000	80.314	-23.0830
206.000000	80.184	-23.4199
209.000000	80.087	-23.7378
212.000000	80.015	-24.1534
214.000000	79.974	-24.5066
218.000000	79.890	-25.3620
220.000000	79.844	-25.8323
224.000000	79.742	-26.7938
227.000000	79.656	-27.5046
230.000000	79.561	-28.1709
233.000000	79.460	-28.7464
236.000000	79.365	-29.2175
240.000000	79.258	-29.7858
243.000000	79.190	-30.2754
247.000000	79.093	-31.0412
250.000000	79.012	-31.6154
254.000000	78.899	-32.2523
258.000000	78.802	-32.7416
262.000000	78.733	-33.2209
265.000000	78.695	-33.6597
269.000000	78.647	-34.3938
272.000000	78.604	-35.0422
276.000000	78.533	-35.9808
280.000000	78.446	-36.9421
285.000000	78.319	-38.1273
290.000000	78.177	-39.2615
295.000000	78.026	-40.3256
300.000000	77.873	-41.3389
304.000000	77.753	-42.1322
307.000000	77.662	-42.7219
311.000000	77.536	-43.5023
315.000000	77.400	-44.2645
320.000000	77.218	-45.1633
325.000000	77.031	-45.9938
330.000000	76.846	-46.7623
335.000000	76.667	-47.4899
340.000000	76.492	-48.2227
345.000000	76.312	-48.9797
350.000000	76.120	-49.7396
355.000000	75.913	-50.4620
360.000000	75.697	-51.1060
365.000000	75.476	-51.6606
370.000000	75.252	-52.1541
375.000000	75.025	-52.6141
382.000000	74.699	-53.1967
387.000000	74.458	-53.5331
395.000000	74.061	-53.8690
400.000000	73.812	-53.9567
406.000000	73.513	-53.9640
412.000000	73.216	-53.8696
418.000000	72.920	-53.6716
425.000000	72.576	-53.3202
431.000000	72.284	-52.9001
437.000000	72.001	-52.3427
444.000000	71.691	-51.5324
450.000000	71.445	-50.7753
455.000000	71.251	-50.1544
462.000000	70.983	-49.3039
468.000000	70.756	-48.5479
475.000000	70.500	-47.6027
482.000000	70.257	-46.6237
487.000000	70.088	-45.9393
494.000000	69.846	-44.9943
500.000000	69.630	-44.1407
508.000000	69.339	-42.9092
515.000000	69.087	-41.7911
522.000000	68.834	-40.6722
530.000000	68.532	-39.3842
538.000000	68.193	-37.9622
545.000000	67.858	-36.3824
552.000000	67.505	-34.3275
560.000000	67.122	-31.3973
570.000000	66.728	-27.0796
580.000000	66.449	-22.3254
590.000000	66.288	-17.3606
600.000000	66.230	-12.3525
608.000000	66.248	-8.3336
615.000000	66.315	-4.8091
622.000000	66.432	-1.3431
630.000000	66.615	2.4987
640.000000	66.914	7.2164
650.000000	67.320	11.8659
660.000000	67.848	16.2196
670.000000	68.476	20.0176
680.000000	69.173	23.1250
690.000000	69.912	25.4931
700.000000	70.666	27.0745
710.000000	71.406	27.8604
720.000000	72.108	27.9402
730.000000	72.762	27.4480
740.000000	73.364	26.4945
750.000000	73.914	25.1698
762.000000	74.504	23.1844
775.000000	75.053	20.6735
788.000000	75.516	17.9691
800.000000	75.885	15.3947
812.000000	76.209	12.7222
825.000000	76.503	9.6675
838.000000	76.725	6.4808
850.000000	76.863	3.5170
862.000000	76.943	0.6212
875.000000	76.971	-2.3839
885.000000	76.957	-4.5867
900.000000	76.879	-7.6770
912.000000	76.770	-9.9098
925.000000	76.613	-12.0286
938.000000	76.426	-13.7847
950.000000	76.239	-15.0439
962.000000	76.059	-15.9537
975.000000	75.893	-16.6353
988.000000	75.771	-17.1934
1000.000000	75.691	-17.7755
1015.000000	75.604	-18.7068
1030.000000	75.497	-19.7911
1044.000000	75.371	-20.7916
1060.000000	75.201	-21.8168
1075.000000	75.026	-22.6606
1090.000000	74.834	-23.3737
1106.000000	74.614	-23.9184
1120.000000	74.421	-24.1870
1138.000000	74.189	-24.3146
1150.000000	74.048	-24.3255
1172.000000	73.806	-24.3025
1180.000000	73.720	-24.2875
1206.000000	73.430	-24.1437
1220.000000	73.269	-23.9595
1241.000000	73.032	-23.5193
1250.000000	72.934	-23.2767
1265.000000	72.776	-22.8102
1280.000000	72.626	-22.2744
1315.000000	72.303	-20.8088
1320.000000	72.260	-20.5790
1340.000000	72.096	-19.6149
1360.000000	71.943	-18.5773
1380.000000	71.802	-17.4648
1400.000000	71.672	-16.2759
1430.000000	71.502	-14.3619
1450.000000	71.406	-13.0241
1475.000000	71.304	-11.2944
1500.000000	71.226	-9.5041
1525.000000	71.174	-7.6777
1550.000000	71.145	-5.8454
1575.000000	71.137	-4.0192
1600.000000	71.148	-2.2126
1625.000000	71.176	-0.4536
1650.000000	71.214	1.2573
1675.000000	71.259	2.9617
1700.000000	71.317	4.6899
1725.000000	71.389	6.4264
1750.000000	71.472	8.1527
1775.000000	71.564	9.8972
1800.000000	71.672	11.7070
1825.000000	71.811	13.5552
1850.000000	71.983	15.3142
1875.000000	72.169	16.9054
1900.000000	72.354	18.3718
1925.000000	72.535	19.8087
1950.000000	72.724	21.2833
1975.000000	72.932	22.7804
2000.000000	73.162	24.2275
2030.000000	73.456	25.8337
2060.000000	73.760	27.3494
2090.000000	74.087	28.8445
2120.000000	74.454	30.2202
2140.000000	74.713	30.9678
2180.000000	75.215	31.9748
2200.000000	75.442	32.3353
2240.000000	75.860	33.1199
2270.000000	76.173	33.9061
2300.000000	76.513	34.8869
2330.000000	76.907	36.0104
2360.000000	77.377	37.1519
2400.000000	78.136	38.3865
2430.000000	78.801	38.8034
2470.000000	79.754	38.1074
2500.000000	80.438	36.3137
2540.000000	81.179	32.2491
2580.000000	81.632	27.0290
2620.000000	81.789	21.8953
2650.000000	81.763	18.7399
2690.000000	81.641	15.7922
2720.000000	81.548	14.4385
2760.000000	81.486	13.4334
2800.000000	81.523	12.9280
2850.000000	81.707	12.4472
2900.000000	82.018	11.6414
2950.000000	82.401	10.0538
3000.000000	82.765	7.4038
3040.000000	82.973	4.5840
3070.000000	83.054	2.2518
3110.000000	83.057	-0.8117
3150.000000	82.965	-3.5026
3200.000000	82.774	-6.1160
3250.000000	82.563	-7.9514
3300.000000	82.372	-9.2019
3350.000000	82.218	-10.0731
3400.000000	82.107	-10.7270
3450.000000	82.037	-11.3151
3500.000000	81.994	-11.9593
3550.000000	81.958	-12.6852
3600.000000	81.917	-13.4285
3650.000000	81.874	-14.1332
3700.000000	81.836	-14.8029
3750.000000	81.804	-15.4821
3820.000000	81.762	-16.5151
3870.000000	81.724	-17.3206
3950.000000	81.636	-18.6646
4000.000000	81.563	-19.4924
4060.000000	81.457	-20.4665
4120.000000	81.326	-21.4077
4180.000000	81.162	-22.2426
4250.000000	80.930	-22.9384
4310.000000	80.710	-23.2070
4370.000000	80.487	-23.1580
4440.000000	80.238	-22.7408
4500.000000	80.040	-22.1050
4550.000000	79.890	-21.3809
4620.000000	79.713	-20.0792
4680.000000	79.606	-18.7417
4750.000000	79.542	-17.0159
4820.000000	79.548	-15.2137
4870.000000	79.598	-13.9335
4940.000000	79.734	-12.2406
5000.000000	79.909	-10.9865
5080.000000	80.210	-9.7949
5150.000000	80.503	-9.3414
5220.000000	80.783	-9.4459
5300.000000	81.053	-10.0457
5380.000000	81.273	-10.7804
5450.000000	81.470	-11.3752
5520.000000	81.705	-12.1351
5600.000000	81.995	-13.6406
5700.000000	82.280	-16.6843
5800.000000	82.391	-20.5372
5900.000000	82.313	-24.5342
6000.000000	82.071	-28.1763
6080.000000	81.787	-30.6254
6150.000000	81.493	-32.3805
6220.000000	81.172	-33.7835
6300.000000	80.786	-34.9929
6400.000000	80.290	-35.9870
6500.000000	79.787	-36.4714
6600.000000	79.284	-36.4774
6700.000000	78.787	-36.0178
6800.000000	78.302	-35.0759
6900.000000	77.848	-33.6379
7000.000000	77.446	-31.7654
7100.000000	77.116	-29.5989
7200.000000	76.862	-27.2747
7300.000000	76.683	-24.8707
7400.000000	76.582	-22.4370
7500.000000	76.569	-20.0479
7620.000000	76.686	-17.4174
7750.000000	76.984	-15.1956
7880.000000	77.449	-14.0856
8000.000000	77.998	-14.5064
8120.000000	78.611	-16.8273
8250.000000	79.254	-22.2111
8380.000000	79.718	-31.3610
8500.000000	79.804	-43.4150
8620.000000	79.384	-58.1887
8750.000000	78.221	-75.2521
8850.000000	76.805	-87.9067
9000.000000	73.910	-106.7239
9120.000000	71.043	-125.3400
9250.000000	67.608	-154.3336
9380.000000	64.616	167.4899
9500.000000	63.717	131.8674
9620.000000	64.585	103.8831
9750.000000	65.891	84.4170
9880.000000	66.849	74.1074
10000.000000	67.460	70.7019
10150.000000	68.252	72.6520
10300.000000	69.524	78.7001
10440.000000	71.166	84.7148
10600.000000	73.200	88.7493
10750.000000	74.947	88.5808
10900.000000	76.385	84.9556
11060.000000	77.511	78.4860
11200.000000	78.150	71.9557
11380.000000	78.633	64.3232
11500.000000	78.891	60.2836
11720.000000	79.570	54.2515
11800.000000	79.922	51.9417
12060.000000	81.299	40.7354
12200.000000	81.968	30.7646
12410.000000	82.415	9.7286
12500.000000	82.290	-0.7788
12650.000000	81.560	-17.8070
12800.000000	80.148	-30.6609
13150.000000	74.787	-33.3254
13200.000000	73.937	-32.1106
13400.000000	71.056	-33.2285
13600.000000	69.436	-50.8151
13800.000000	69.273	-84.9454
14000.000000	71.145	-129.6700
14300.000000	75.536	162.0016
14500.000000	77.901	122.3801
14750.000000	79.727	78.3372
15000.000000	80.280	38.1851
15250.000000	79.586	2.8442
15500.000000	77.667	-22.6455
15750.000000	74.660	-31.5271
16000.000000	71.042	-21.9677
16250.000000	68.393	-3.7471
16500.000000	68.569	7.0574
16750.000000	69.972	3.4199
17000.000000	70.983	-11.5256
17250.000000	71.269	-32.3386
17500.000000	70.810	-54.7263
17750.000000	69.617	-74.9479
18000.000000	67.788	-89.8466
18250.000000	65.640	-98.5972
18500.000000	63.882	-103.9916
18750.000000	63.374	-111.2876
19000.000000	64.076	-125.0359
19250.000000	65.175	-147.0885
19500.000000	66.085	-175.5811
19750.000000	66.615	155.9808
