* Measurement data measured by REW V5.20.13
* Source: EXCL: Headset (USB-C to 3.5mm Headphone Jack Adapter), MICROPHONE (Master Volume), 0, volume: 0.260
* Format: 256k Log Swept Sine, 1 sweep at -12.0 dBFS with no timing reference
* Dated: Dec 28, 2023 10:55:56 AM
* REW Settings:
*  C-weighting compensation: Off
*  Target level: 75.0 dB
* Note: Solid Leather Pads
* Measurement: Headamame V1 40mm Peerl
* Smoothing: 1/12 octave
* Frequency Step: 1/48 octave
* Start Frequency: 20.000 Hz
*
* Freq(Hz)	SPL(dB)	Phase(degrees)
20.000000	71.221	-141.0065
20.299999	71.573	-142.8523
20.600000	71.895	-144.7527
20.900000	72.181	-146.6361
21.200001	72.435	-148.4111
21.400000	72.593	-149.4918
21.799999	72.906	-151.3781
22.000000	73.071	-152.2048
22.400000	73.434	-153.7523
22.700001	73.734	-154.9800
23.000000	74.044	-156.3833
23.299999	74.346	-158.0091
23.600000	74.620	-159.8258
24.000000	74.925	-162.3547
24.299999	75.113	-164.1467
24.700001	75.336	-166.1837
25.000000	75.511	-167.4077
25.400000	75.785	-168.7347
25.799999	76.118	-169.9573
26.200001	76.492	-171.3076
26.500000	76.780	-172.4606
26.900000	77.157	-174.1453
27.200001	77.432	-175.4668
27.600000	77.791	-177.2531
28.000000	78.143	-179.0737
28.500000	78.566	178.5336
29.000000	78.945	175.9993
29.500000	79.265	173.4599
30.000000	79.536	171.1149
30.400000	79.734	169.4372
30.700001	79.880	168.2775
31.100000	80.076	166.8137
31.500000	80.270	165.3947
32.000000	80.509	163.6537
32.500000	80.741	161.9600
33.000000	80.974	160.3122
33.500000	81.212	158.6644
34.000000	81.450	156.9580
34.500000	81.678	155.1807
35.000000	81.891	153.3835
35.500000	82.090	151.6370
36.000000	82.285	149.9798
36.500000	82.484	148.3999
37.000000	82.689	146.8524
37.500000	82.897	145.2966
38.200001	83.187	143.0776
38.700001	83.387	141.4694
39.500000	83.691	138.8796
40.000000	83.871	137.2610
40.599998	84.074	135.3306
41.200001	84.264	133.4268
41.799999	84.442	131.5655
42.500000	84.639	129.4590
43.099998	84.801	127.6986
43.700001	84.957	125.9589
44.400002	85.127	123.9468
45.000000	85.261	122.2538
45.500000	85.365	120.8809
46.200001	85.503	119.0253
46.799999	85.616	117.4886
47.500000	85.744	115.7386
48.200001	85.864	114.0342
48.700001	85.945	112.8621
49.400002	86.059	111.3061
50.000000	86.162	110.0392
50.799999	86.309	108.3881
51.500000	86.442	106.9423
52.200001	86.572	105.4999
53.000000	86.716	103.8917
53.799999	86.861	102.3522
54.500000	86.993	101.0339
55.200001	87.130	99.6879
56.000000	87.286	98.0739
57.000000	87.470	95.9341
58.000000	87.630	93.6808
59.000000	87.758	91.4263
60.000000	87.864	89.3450
60.799999	87.954	87.8199
61.500000	88.041	86.5213
62.200001	88.128	85.2158
63.000000	88.222	83.7244
64.000000	88.328	81.9050
65.000000	88.424	80.1435
66.000000	88.514	78.4144
67.000000	88.598	76.6942
68.000000	88.675	74.9698
69.000000	88.747	73.2436
70.000000	88.812	71.5301
71.000000	88.870	69.8497
72.000000	88.921	68.2219
73.000000	88.964	66.6600
74.000000	89.000	65.1692
75.000000	89.031	63.7468
76.199997	89.062	62.1201
77.500000	89.093	60.4435
78.800003	89.125	58.8412
80.000000	89.158	57.4174
81.199997	89.194	56.0426
82.500000	89.236	54.6035
83.800003	89.281	53.2123
85.000000	89.325	51.9717
86.199997	89.374	50.7662
87.500000	89.431	49.4822
88.500000	89.480	48.4974
90.000000	89.556	47.0006
91.199997	89.619	45.7668
92.500000	89.686	44.3828
93.800003	89.749	42.9435
95.000000	89.801	41.5659
96.199997	89.847	40.1484
97.500000	89.886	38.5814
98.800003	89.912	36.9965
100.000000	89.922	35.5325
101.500000	89.913	33.7324
103.000000	89.880	32.0173
104.400002	89.832	30.5515
106.000000	89.762	29.0947
107.500000	89.691	27.9669
109.000000	89.626	27.0572
110.599998	89.574	26.2687
112.000000	89.552	25.6696
113.800003	89.558	24.9586
115.000000	89.584	24.4952
117.199997	89.666	23.5967
118.000000	89.702	23.2316
120.599998	89.809	21.8329
122.000000	89.856	20.9761
124.099998	89.928	19.6130
125.000000	89.963	18.9966
126.500000	90.025	17.9241
128.000000	90.086	16.8052
131.500000	90.210	14.0795
132.000000	90.224	13.6818
134.000000	90.274	12.0803
136.000000	90.315	10.4715
138.000000	90.348	8.8699
140.000000	90.373	7.2845
143.000000	90.398	4.9417
145.000000	90.408	3.4015
147.500000	90.414	1.4900
150.000000	90.415	-0.4238
152.500000	90.412	-2.3473
155.000000	90.404	-4.2742
157.500000	90.387	-6.2028
160.000000	90.360	-8.1287
162.500000	90.324	-10.0422
165.000000	90.278	-11.9382
167.500000	90.224	-13.8260
170.000000	90.159	-15.7147
172.500000	90.084	-17.5981
175.000000	89.997	-19.4605
177.500000	89.897	-21.2850
180.000000	89.783	-23.0602
182.500000	89.658	-24.7723
185.000000	89.524	-26.4021
187.500000	89.385	-27.9387
190.000000	89.245	-29.3932
192.500000	89.106	-30.7910
195.000000	88.970	-32.1549
197.500000	88.831	-33.4960
200.000000	88.690	-34.8158
203.000000	88.512	-36.3610
206.000000	88.326	-37.8436
209.000000	88.134	-39.2551
212.000000	87.938	-40.6058
214.000000	87.805	-41.4772
218.000000	87.532	-43.1445
220.000000	87.390	-43.9307
224.000000	87.099	-45.3765
227.000000	86.877	-46.3309
230.000000	86.657	-47.1724
233.000000	86.445	-47.9224
236.000000	86.244	-48.6208
240.000000	85.991	-49.5427
243.000000	85.807	-50.2597
247.000000	85.557	-51.2489
250.000000	85.361	-51.9874
254.000000	85.083	-52.9056
258.000000	84.788	-53.6773
262.000000	84.485	-54.2360
265.000000	84.258	-54.4919
269.000000	83.971	-54.6397
272.000000	83.774	-54.6620
276.000000	83.536	-54.6695
280.000000	83.319	-54.7153
285.000000	83.060	-54.8306
290.000000	82.809	-54.9628
295.000000	82.559	-55.0773
300.000000	82.310	-55.1769
304.000000	82.109	-55.2555
307.000000	81.959	-55.3123
311.000000	81.756	-55.3782
315.000000	81.547	-55.4116
320.000000	81.276	-55.3384
325.000000	80.999	-55.0580
330.000000	80.736	-54.5693
335.000000	80.501	-53.9698
340.000000	80.289	-53.3755
345.000000	80.084	-52.8141
350.000000	79.875	-52.1924
355.000000	79.672	-51.3949
360.000000	79.495	-50.4178
365.000000	79.360	-49.3901
370.000000	79.263	-48.4630
375.000000	79.186	-47.7005
382.000000	79.089	-46.8474
387.000000	79.022	-46.3094
395.000000	78.926	-45.4962
400.000000	78.880	-45.0493
406.000000	78.836	-44.6422
412.000000	78.796	-44.4086
418.000000	78.748	-44.3226
425.000000	78.677	-44.3317
431.000000	78.605	-44.4026
437.000000	78.528	-44.5382
444.000000	78.429	-44.7927
450.000000	78.332	-45.1021
455.000000	78.237	-45.4156
462.000000	78.078	-45.9005
468.000000	77.918	-46.3207
475.000000	77.702	-46.7842
482.000000	77.455	-47.1981
487.000000	77.258	-47.4416
494.000000	76.951	-47.6448
500.000000	76.664	-47.6387
508.000000	76.256	-47.3380
515.000000	75.882	-46.7933
522.000000	75.499	-45.9717
530.000000	75.056	-44.6780
538.000000	74.618	-42.9968
545.000000	74.247	-41.2262
552.000000	73.890	-39.2264
560.000000	73.488	-36.6486
570.000000	73.001	-32.8370
580.000000	72.572	-28.2961
590.000000	72.240	-23.1594
600.000000	72.020	-17.5899
608.000000	71.933	-12.8480
615.000000	71.937	-8.5305
622.000000	72.028	-4.1607
630.000000	72.237	0.7495
640.000000	72.639	6.5615
650.000000	73.171	11.8446
660.000000	73.808	16.5183
670.000000	74.527	20.5242
680.000000	75.306	23.8064
690.000000	76.126	26.3370
700.000000	76.970	28.0828
710.000000	77.813	28.9863
720.000000	78.624	29.0496
730.000000	79.382	28.3621
740.000000	80.075	27.0609
750.000000	80.701	25.2787
762.000000	81.359	22.6364
775.000000	81.953	19.3121
788.000000	82.422	15.7169
800.000000	82.750	12.3463
812.000000	82.987	9.0867
825.000000	83.163	5.8425
838.000000	83.290	2.9908
850.000000	83.396	0.6274
862.000000	83.499	-1.6655
875.000000	83.589	-4.1991
885.000000	83.631	-6.1590
900.000000	83.643	-8.9775
912.000000	83.620	-11.0509
925.000000	83.572	-13.1039
938.000000	83.509	-14.9636
950.000000	83.443	-16.5190
962.000000	83.375	-17.9446
975.000000	83.303	-19.3782
988.000000	83.230	-20.7295
1000.000000	83.163	-21.9225
1015.000000	83.075	-23.3379
1030.000000	82.985	-24.6412
1044.000000	82.910	-25.7839
1060.000000	82.836	-27.1370
1075.000000	82.759	-28.5192
1090.000000	82.659	-29.9385
1106.000000	82.526	-31.3936
1120.000000	82.393	-32.5898
1138.000000	82.200	-33.9998
1150.000000	82.060	-34.8384
1172.000000	81.794	-36.1582
1180.000000	81.695	-36.5778
1206.000000	81.370	-37.7548
1220.000000	81.191	-38.2692
1241.000000	80.918	-38.8726
1250.000000	80.800	-39.0652
1265.000000	80.603	-39.2914
1280.000000	80.408	-39.3922
1315.000000	79.989	-39.1501
1320.000000	79.936	-39.0748
1340.000000	79.747	-38.7565
1360.000000	79.582	-38.4816
1380.000000	79.427	-38.2598
1400.000000	79.275	-38.0555
1430.000000	79.050	-37.7286
1450.000000	78.902	-37.4849
1475.000000	78.720	-37.1531
1500.000000	78.537	-36.7861
1525.000000	78.352	-36.3672
1550.000000	78.161	-35.8453
1575.000000	77.971	-35.1419
1600.000000	77.805	-34.2773
1625.000000	77.671	-33.3799
1650.000000	77.561	-32.5345
1675.000000	77.465	-31.7587
1700.000000	77.382	-31.0608
1725.000000	77.311	-30.4902
1750.000000	77.242	-30.1090
1775.000000	77.164	-29.9412
1800.000000	77.067	-30.0182
1825.000000	76.933	-30.4167
1850.000000	76.720	-31.1285
1875.000000	76.362	-31.7865
1900.000000	75.811	-31.4525
1925.000000	75.127	-28.9778
1950.000000	74.547	-24.1909
1975.000000	74.324	-18.5421
2000.000000	74.439	-13.8080
2030.000000	74.723	-10.1104
2060.000000	74.955	-7.8474
2090.000000	75.096	-6.1342
2120.000000	75.164	-4.5350
2140.000000	75.175	-3.4235
2180.000000	75.130	-0.8298
2200.000000	75.087	0.7537
2240.000000	75.005	4.6368
2270.000000	74.982	8.2009
2300.000000	75.028	12.2978
2330.000000	75.176	16.8662
2360.000000	75.463	21.8088
2400.000000	76.128	28.7394
2430.000000	76.885	33.9412
2470.000000	78.272	40.2729
2500.000000	79.544	43.8783
2540.000000	81.343	45.9658
2580.000000	82.996	44.1247
2620.000000	84.290	38.6256
2650.000000	84.966	32.9373
2690.000000	85.492	24.7781
2720.000000	85.657	19.0719
2760.000000	85.673	12.6672
2800.000000	85.564	7.7860
2850.000000	85.398	3.5035
2900.000000	85.319	0.5349
2950.000000	85.390	-2.1066
3000.000000	85.560	-5.4999
3040.000000	85.654	-9.1440
3070.000000	85.638	-12.2650
3110.000000	85.469	-16.4112
3150.000000	85.159	-19.9812
3200.000000	84.678	-23.3596
3250.000000	84.187	-25.9316
3300.000000	83.690	-28.1404
3350.000000	83.148	-29.9836
3400.000000	82.548	-31.2725
3450.000000	81.897	-31.8675
3500.000000	81.202	-31.6027
3550.000000	80.483	-30.2194
3600.000000	79.800	-27.5515
3650.000000	79.256	-23.8188
3700.000000	78.936	-19.6340
3750.000000	78.849	-15.7065
3820.000000	78.998	-11.6730
3870.000000	79.159	-10.1880
3950.000000	79.259	-9.8566
4000.000000	79.140	-10.2373
4060.000000	78.792	-10.3726
4120.000000	78.254	-9.3643
4180.000000	77.605	-6.7043
4250.000000	76.825	-1.2006
4310.000000	76.280	5.8264
4370.000000	76.090	14.8011
4440.000000	76.596	25.9684
4500.000000	77.521	33.8535
4550.000000	78.376	38.2531
4620.000000	79.416	41.3599
4680.000000	80.074	42.4179
4750.000000	80.621	43.4775
4820.000000	81.081	45.5258
4870.000000	81.471	47.8381
4940.000000	82.256	52.0481
5000.000000	83.235	55.9785
5080.000000	84.927	60.2374
5150.000000	86.567	61.6265
5220.000000	88.116	59.8802
5300.000000	89.548	53.9908
5380.000000	90.500	45.2921
5450.000000	90.959	37.0615
5520.000000	91.165	29.3709
5600.000000	91.202	21.5760
5700.000000	91.002	13.1879
5800.000000	90.535	6.8097
5900.000000	89.927	3.2146
6000.000000	89.424	2.2090
6080.000000	89.245	2.4869
6150.000000	89.292	2.8604
6220.000000	89.512	2.8368
6300.000000	89.905	1.7881
6400.000000	90.448	-1.6619
6500.000000	90.843	-7.6066
6600.000000	90.924	-15.2841
6700.000000	90.620	-23.2556
6800.000000	89.955	-30.0370
6900.000000	89.028	-34.6799
7000.000000	87.982	-37.0035
7100.000000	86.963	-37.4576
7200.000000	86.072	-36.7935
7300.000000	85.328	-35.6439
7400.000000	84.688	-34.2153
7500.000000	84.116	-32.3340
7620.000000	83.565	-29.2706
7750.000000	83.277	-25.5811
7880.000000	83.331	-22.9463
8000.000000	83.529	-22.2583
8120.000000	83.743	-23.1737
8250.000000	83.963	-25.8561
8380.000000	84.128	-30.9375
8500.000000	84.054	-38.2034
8620.000000	83.553	-46.8922
8750.000000	82.403	-55.1742
8850.000000	81.100	-58.9020
9000.000000	78.663	-58.8999
9120.000000	76.545	-54.8547
9250.000000	74.303	-47.4076
9380.000000	72.196	-35.8431
9500.000000	70.578	-19.6212
9620.000000	69.969	1.0871
9750.000000	70.844	21.9314
9880.000000	72.260	34.5129
10000.000000	73.298	39.1472
10150.000000	74.138	41.0007
10300.000000	74.762	42.6946
10440.000000	75.363	44.8204
10600.000000	76.135	47.2521
10750.000000	76.963	49.1791
10900.000000	77.949	50.5913
11060.000000	79.221	50.9018
11200.000000	80.433	49.0069
11380.000000	81.772	41.7441
11500.000000	82.294	33.8763
11720.000000	82.220	17.8846
11800.000000	81.921	13.0875
12060.000000	80.746	2.3046
12200.000000	80.279	-2.9025
12410.000000	79.659	-12.5433
12500.000000	79.350	-17.3302
12650.000000	78.748	-26.1388
12800.000000	78.023	-36.2313
13150.000000	75.501	-64.5020
13200.000000	75.000	-68.6476
13400.000000	72.613	-83.8195
13600.000000	69.833	-96.3909
13800.000000	67.707	-111.7178
14000.000000	67.666	-140.0315
14300.000000	69.535	153.1292
14500.000000	70.537	103.1201
14750.000000	71.166	38.2100
15000.000000	71.280	-32.0433
15250.000000	71.447	-102.8313
15500.000000	72.167	-162.6238
15750.000000	73.276	153.1310
16000.000000	74.220	119.4863
16250.000000	74.560	91.3523
16500.000000	74.191	67.8962
16750.000000	73.329	49.5638
17000.000000	72.365	34.7532
17250.000000	71.504	20.4916
17500.000000	70.504	6.2446
17750.000000	69.102	-4.7644
18000.000000	67.633	-10.0210
18250.000000	67.188	-11.7247
18500.000000	68.364	-16.2384
18750.000000	70.159	-30.2141
19000.000000	71.572	-56.0852
19250.000000	72.235	-90.7783
19500.000000	72.195	-127.5813
19750.000000	71.777	-158.8610
