* Measurement data measured by REW V5.20.13
* Source: EXCL: Headset (USB-C to 3.5mm Headphone Jack Adapter), MICROPHONE (Master Volume), 0, volume: 0.260
* Format: 256k Log Swept Sine, 1 sweep at -12.0 dBFS with no timing reference
* Dated: Dec 29, 2023 3:41:49 PM
* REW Settings:
*  C-weighting compensation: Off
*  Target level: 75.0 dB
* Note: Headamame Open Perforated leather pads
* Measurement: HO PL Pads 40mm Peerless
* Smoothing: 1/12 octave
* Frequency Step: 1/48 octave
* Start Frequency: 20.000 Hz
*
* Freq(Hz)	SPL(dB)	Phase(degrees)
20.000000	70.865	-168.3993
20.299999	71.141	-169.9202
20.600000	71.406	-171.4246
20.900000	71.662	-172.9011
21.200001	71.910	-174.3430
21.400000	72.072	-175.2844
21.799999	72.392	-177.1262
22.000000	72.549	-178.0306
22.400000	72.861	-179.8156
22.700001	73.092	178.8594
23.000000	73.321	177.5419
23.299999	73.547	176.2284
23.600000	73.771	174.9164
24.000000	74.064	173.1645
24.299999	74.279	171.8463
24.700001	74.558	170.0842
25.000000	74.760	168.7665
25.400000	75.019	167.0323
25.799999	75.267	165.3496
26.200001	75.508	163.7358
26.500000	75.688	162.5693
26.900000	75.929	161.0517
27.200001	76.110	159.9232
27.600000	76.348	158.4070
28.000000	76.580	156.8708
28.500000	76.853	154.9478
29.000000	77.110	153.0757
29.500000	77.356	151.2838
30.000000	77.598	149.5536
30.400000	77.788	148.1886
30.700001	77.928	147.1684
31.100000	78.109	145.8148
31.500000	78.284	144.4805
32.000000	78.496	142.8554
32.500000	78.704	141.2769
33.000000	78.910	139.7228
33.500000	79.112	138.1731
34.000000	79.307	136.6266
34.500000	79.494	135.0989
35.000000	79.674	133.6065
35.500000	79.849	132.1531
36.000000	80.022	130.7277
36.500000	80.190	129.3174
37.000000	80.354	127.9185
37.500000	80.511	126.5358
38.200001	80.725	124.6340
38.700001	80.873	123.2941
39.500000	81.102	121.1635
40.000000	81.239	119.8421
40.599998	81.398	118.2776
41.200001	81.552	116.7395
41.799999	81.702	115.2246
42.500000	81.873	113.4866
43.099998	82.014	112.0255
43.700001	82.152	110.5888
44.400002	82.307	108.9384
45.000000	82.433	107.5506
45.500000	82.534	106.4174
46.200001	82.669	104.8623
46.799999	82.779	103.5519
47.500000	82.901	102.0511
48.200001	83.018	100.5775
48.700001	83.101	99.5291
49.400002	83.211	98.0534
50.000000	83.299	96.7932
50.799999	83.409	95.1597
51.500000	83.502	93.7971
52.200001	83.594	92.5019
53.000000	83.700	91.1052
53.799999	83.808	89.7945
54.500000	83.904	88.7072
55.200001	84.001	87.6570
56.000000	84.110	86.4749
57.000000	84.237	84.9870
58.000000	84.348	83.5032
59.000000	84.457	82.0999
60.000000	84.592	80.6463
60.799999	84.706	79.2752
61.500000	84.792	77.9548
62.200001	84.862	76.6320
63.000000	84.934	75.1938
64.000000	85.025	73.4946
65.000000	85.118	71.8499
66.000000	85.205	70.2298
67.000000	85.277	68.6446
68.000000	85.335	67.1182
69.000000	85.380	65.6592
70.000000	85.418	64.2515
71.000000	85.450	62.8860
72.000000	85.475	61.5827
73.000000	85.496	60.3669
74.000000	85.520	59.2469
75.000000	85.549	58.2000
76.199997	85.591	56.9872
77.500000	85.639	55.6848
78.800003	85.683	54.3906
80.000000	85.721	53.2148
81.199997	85.761	52.0511
82.500000	85.803	50.7911
83.800003	85.842	49.5461
85.000000	85.877	48.4296
86.199997	85.912	47.3386
87.500000	85.950	46.1617
88.500000	85.977	45.2568
90.000000	86.011	43.9263
91.199997	86.034	42.9006
92.500000	86.059	41.8267
93.800003	86.082	40.7852
95.000000	86.101	39.8543
96.199997	86.118	38.9570
97.500000	86.136	38.0185
98.800003	86.153	37.1067
100.000000	86.170	36.2850
101.500000	86.192	35.2766
103.000000	86.216	34.2798
104.400002	86.239	33.3636
106.000000	86.265	32.3443
107.500000	86.292	31.4121
109.000000	86.319	30.4941
110.599998	86.350	29.5276
112.000000	86.378	28.6887
113.800003	86.411	27.6174
115.000000	86.428	26.9100
117.199997	86.448	25.6393
118.000000	86.454	25.1830
120.599998	86.482	23.6253
122.000000	86.499	22.7048
124.099998	86.518	21.3120
125.000000	86.525	20.7374
126.500000	86.534	19.8191
128.000000	86.541	18.9421
131.500000	86.547	16.9797
132.000000	86.547	16.7073
134.000000	86.542	15.6486
136.000000	86.537	14.6381
138.000000	86.531	13.6636
140.000000	86.526	12.7170
143.000000	86.522	11.3362
145.000000	86.524	10.4316
147.500000	86.525	9.3088
150.000000	86.523	8.1931
152.500000	86.518	7.0563
155.000000	86.506	5.9028
157.500000	86.483	4.7851
160.000000	86.444	3.7352
162.500000	86.395	2.7521
165.000000	86.346	1.8655
167.500000	86.307	1.1001
170.000000	86.281	0.4377
172.500000	86.265	-0.1504
175.000000	86.264	-0.7043
177.500000	86.278	-1.2753
180.000000	86.304	-1.9152
182.500000	86.337	-2.6528
185.000000	86.372	-3.4774
187.500000	86.403	-4.3619
190.000000	86.429	-5.2896
192.500000	86.449	-6.2523
195.000000	86.462	-7.2422
197.500000	86.470	-8.2521
200.000000	86.472	-9.2784
203.000000	86.466	-10.5281
206.000000	86.451	-11.7887
209.000000	86.424	-13.0500
212.000000	86.381	-14.2950
214.000000	86.343	-15.0983
218.000000	86.249	-16.5691
220.000000	86.197	-17.2112
224.000000	86.096	-18.3059
227.000000	86.036	-19.0127
230.000000	85.994	-19.6922
233.000000	85.966	-20.4026
236.000000	85.944	-21.1786
240.000000	85.913	-22.3130
243.000000	85.882	-23.2064
247.000000	85.830	-24.4030
250.000000	85.786	-25.2842
254.000000	85.723	-26.4279
258.000000	85.656	-27.5239
262.000000	85.588	-28.5749
265.000000	85.538	-29.3574
269.000000	85.470	-30.4155
272.000000	85.415	-31.2117
276.000000	85.336	-32.2523
280.000000	85.254	-33.2524
285.000000	85.148	-34.4436
290.000000	85.043	-35.5790
295.000000	84.938	-36.6755
300.000000	84.835	-37.7691
304.000000	84.751	-38.6559
307.000000	84.686	-39.3198
311.000000	84.599	-40.1954
315.000000	84.510	-41.0580
320.000000	84.394	-42.1166
325.000000	84.273	-43.1526
330.000000	84.147	-44.1609
335.000000	84.016	-45.1343
340.000000	83.881	-46.0746
345.000000	83.741	-46.9810
350.000000	83.596	-47.8392
355.000000	83.442	-48.6252
360.000000	83.285	-49.3147
365.000000	83.130	-49.8943
370.000000	82.983	-50.3740
375.000000	82.851	-50.7915
382.000000	82.693	-51.3746
387.000000	82.594	-51.8532
395.000000	82.441	-52.7704
400.000000	82.340	-53.4123
406.000000	82.209	-54.2109
412.000000	82.066	-55.0074
418.000000	81.913	-55.7738
425.000000	81.726	-56.6069
431.000000	81.562	-57.2638
437.000000	81.398	-57.8784
444.000000	81.204	-58.5604
450.000000	81.036	-59.1226
455.000000	80.892	-59.5763
462.000000	80.683	-60.1801
468.000000	80.493	-60.6408
475.000000	80.260	-61.0453
482.000000	80.027	-61.2628
487.000000	79.869	-61.3358
494.000000	79.662	-61.4033
500.000000	79.494	-61.4609
508.000000	79.272	-61.5323
515.000000	79.077	-61.5667
522.000000	78.877	-61.5471
530.000000	78.642	-61.4127
538.000000	78.406	-61.0976
545.000000	78.210	-60.6461
552.000000	78.035	-60.0634
560.000000	77.871	-59.3314
570.000000	77.713	-58.4589
580.000000	77.593	-57.7257
590.000000	77.493	-57.1566
600.000000	77.401	-56.7238
608.000000	77.328	-56.4450
615.000000	77.264	-56.2322
622.000000	77.200	-56.0352
630.000000	77.129	-55.8207
640.000000	77.045	-55.5752
650.000000	76.970	-55.3776
660.000000	76.900	-55.2375
670.000000	76.834	-55.1440
680.000000	76.771	-55.1013
690.000000	76.711	-55.1470
700.000000	76.649	-55.3057
710.000000	76.575	-55.5499
720.000000	76.487	-55.8329
730.000000	76.385	-56.1198
740.000000	76.271	-56.3798
750.000000	76.150	-56.5954
762.000000	75.998	-56.7904
775.000000	75.830	-56.9161
788.000000	75.663	-56.9777
800.000000	75.513	-57.0034
812.000000	75.372	-57.0348
825.000000	75.227	-57.1604
838.000000	75.073	-57.4211
850.000000	74.905	-57.7068
862.000000	74.712	-57.9267
875.000000	74.481	-58.0173
885.000000	74.295	-57.9645
900.000000	74.014	-57.6796
912.000000	73.795	-57.2830
925.000000	73.572	-56.7145
938.000000	73.370	-56.0397
950.000000	73.212	-55.3896
962.000000	73.081	-54.8259
975.000000	72.957	-54.4313
988.000000	72.827	-54.3016
1000.000000	72.678	-54.3708
1015.000000	72.425	-54.5045
1030.000000	72.096	-54.3080
1044.000000	71.759	-53.5705
1060.000000	71.406	-52.1699
1075.000000	71.139	-50.6639
1090.000000	70.920	-49.2278
1106.000000	70.709	-47.8418
1120.000000	70.527	-46.7383
1138.000000	70.269	-45.3828
1150.000000	70.076	-44.4175
1172.000000	69.688	-42.2338
1180.000000	69.547	-41.2720
1206.000000	69.139	-37.5962
1220.000000	68.976	-35.3955
1241.000000	68.812	-32.2004
1250.000000	68.756	-30.9351
1265.000000	68.663	-28.9113
1280.000000	68.570	-26.8970
1315.000000	68.379	-22.1824
1320.000000	68.351	-21.5067
1340.000000	68.238	-18.7250
1360.000000	68.130	-15.8147
1380.000000	68.021	-12.7087
1400.000000	67.923	-9.1249
1430.000000	67.921	-2.8800
1450.000000	68.050	1.3165
1475.000000	68.308	6.2934
1500.000000	68.660	11.0483
1525.000000	69.102	15.4926
1550.000000	69.634	19.6771
1575.000000	70.287	23.4314
1600.000000	71.001	26.2113
1625.000000	71.696	28.0911
1650.000000	72.383	29.4247
1675.000000	73.075	30.2206
1700.000000	73.759	30.3304
1725.000000	74.384	29.6066
1750.000000	74.905	28.2854
1775.000000	75.350	26.7839
1800.000000	75.755	25.0735
1825.000000	76.091	22.8954
1850.000000	76.295	20.3293
1875.000000	76.325	17.9109
1900.000000	76.208	16.4488
1925.000000	76.071	16.4259
1950.000000	76.070	17.3854
1975.000000	76.236	18.2838
2000.000000	76.467	18.5094
2030.000000	76.709	18.1078
2060.000000	76.899	17.5100
2090.000000	77.060	16.8538
2120.000000	77.183	16.0842
2140.000000	77.231	15.5914
2180.000000	77.270	15.0533
2200.000000	77.289	15.0557
2240.000000	77.373	15.3532
2270.000000	77.472	15.5959
2300.000000	77.585	15.7493
2330.000000	77.699	15.8170
2360.000000	77.803	15.8463
2400.000000	77.928	15.9392
2430.000000	78.020	16.0941
2470.000000	78.153	16.3864
2500.000000	78.262	16.6464
2540.000000	78.425	17.0201
2580.000000	78.607	17.3406
2620.000000	78.797	17.5508
2650.000000	78.938	17.6589
2690.000000	79.127	17.7750
2720.000000	79.270	17.8555
2760.000000	79.466	17.9819
2800.000000	79.681	18.1229
2850.000000	79.991	18.1432
2900.000000	80.319	17.7560
2950.000000	80.627	16.9805
3000.000000	80.905	15.9081
3040.000000	81.097	14.8741
3070.000000	81.221	14.0342
3110.000000	81.362	12.8632
3150.000000	81.474	11.6588
3200.000000	81.573	10.1711
3250.000000	81.632	8.7592
3300.000000	81.656	7.4407
3350.000000	81.645	6.2596
3400.000000	81.603	5.3043
3450.000000	81.547	4.6174
3500.000000	81.491	4.1514
3550.000000	81.439	3.8645
3600.000000	81.394	3.7427
3650.000000	81.363	3.7565
3700.000000	81.351	3.8627
3750.000000	81.362	3.9920
3820.000000	81.406	4.0421
3870.000000	81.442	3.9160
3950.000000	81.472	3.4646
4000.000000	81.462	3.0760
4060.000000	81.405	2.5738
4120.000000	81.283	2.1882
4180.000000	81.093	2.1860
4250.000000	80.814	3.0331
4310.000000	80.582	4.6450
4370.000000	80.421	7.0114
4440.000000	80.392	10.3357
4500.000000	80.513	13.1414
4550.000000	80.680	15.1967
4620.000000	80.955	17.6442
4680.000000	81.205	19.5275
4750.000000	81.521	21.6867
4820.000000	81.888	23.8872
4870.000000	82.197	25.4536
4940.000000	82.701	27.5280
5000.000000	83.199	29.1219
5080.000000	83.976	31.0223
5150.000000	84.819	32.4714
5220.000000	85.832	33.1724
5300.000000	87.041	31.8143
5380.000000	88.055	27.7368
5450.000000	88.716	22.9138
5520.000000	89.255	17.9738
5600.000000	89.869	12.3167
5700.000000	90.625	3.5355
5800.000000	91.016	-8.3282
5900.000000	90.771	-21.2476
6000.000000	89.927	-32.1733
6080.000000	88.955	-38.3922
6150.000000	87.990	-41.9202
6220.000000	86.994	-43.8684
6300.000000	85.898	-44.5469
6400.000000	84.693	-43.8324
6500.000000	83.731	-42.3113
6600.000000	82.986	-40.7123
6700.000000	82.382	-39.3605
6800.000000	81.837	-38.2856
6900.000000	81.290	-37.3044
7000.000000	80.712	-36.1349
7100.000000	80.098	-34.4968
7200.000000	79.462	-32.1152
7300.000000	78.852	-28.8251
7400.000000	78.331	-24.7447
7500.000000	77.944	-20.1215
7620.000000	77.699	-13.9403
7750.000000	77.858	-6.8376
7880.000000	78.509	-1.1826
8000.000000	79.259	0.9742
8120.000000	79.837	0.2430
8250.000000	80.163	-2.0936
8380.000000	80.310	-4.6189
8500.000000	80.410	-7.4376
8620.000000	80.394	-11.5657
8750.000000	79.984	-16.7300
8850.000000	79.286	-19.2035
9000.000000	77.830	-17.4661
9120.000000	76.819	-12.0589
9250.000000	76.358	-5.5542
9380.000000	76.443	-1.1407
9500.000000	76.654	0.5229
9620.000000	76.777	0.4625
9750.000000	76.717	-0.5774
9880.000000	76.442	-1.6785
10000.000000	76.022	-2.0792
10150.000000	75.342	-1.0819
10300.000000	74.625	1.8666
10440.000000	74.071	6.2015
10600.000000	73.770	12.4728
10750.000000	74.000	18.8084
10900.000000	74.821	24.2111
11060.000000	76.129	26.5090
11200.000000	77.207	23.5126
11380.000000	77.856	12.8832
11500.000000	77.626	4.4550
11720.000000	76.012	-5.1018
11800.000000	75.217	-5.9447
12060.000000	72.983	-3.9274
12200.000000	72.373	-4.3592
12410.000000	71.886	-13.9608
12500.000000	71.594	-22.6979
12650.000000	70.762	-44.8211
12800.000000	69.481	-77.5630
13150.000000	67.840	177.5161
13200.000000	68.139	163.2637
13400.000000	69.997	117.4995
13600.000000	71.770	88.1233
13800.000000	73.001	67.7455
14000.000000	73.723	50.5873
14300.000000	74.036	23.6494
14500.000000	73.729	0.8735
14750.000000	72.627	-37.9540
15000.000000	70.686	-91.7230
15250.000000	68.437	-155.8774
15500.000000	67.160	145.7183
15750.000000	67.325	105.9214
16000.000000	68.311	83.2592
16250.000000	69.617	68.3257
16500.000000	70.757	53.2346
16750.000000	71.465	35.5858
17000.000000	71.739	15.5354
17250.000000	71.505	-6.4923
17500.000000	70.538	-27.6108
17750.000000	68.738	-42.3667
18000.000000	66.410	-47.8318
18250.000000	64.515	-47.5986
18500.000000	64.222	-49.8165
18750.000000	65.158	-60.6737
19000.000000	66.328	-80.7822
19250.000000	67.370	-108.2179
19500.000000	68.109	-140.4086
19750.000000	68.439	-171.3433
