* Measurement data measured by REW V5.20.13
* Source: EXCL: Headset (USB-C to 3.5mm Headphone Jack Adapter), MICROPHONE (Master Volume), 0, volume: 0.260
* Format: 256k Log Swept Sine, 1 sweep at -12.0 dBFS with no timing reference
* Dated: Dec 28, 2023 1:47:43 PM
* REW Settings:
*  C-weighting compensation: Off
*  Target level: 75.0 dB
* Note: Headamame Capra Tuned 50mm Peerless
* Measurement: Headamame ZMF PerfL
* Smoothing: 1/12 octave
* Frequency Step: 1/48 octave
* Start Frequency: 20.000 Hz
*
* Freq(Hz)	SPL(dB)	Phase(degrees)
20.000000	75.877	140.2552
20.299999	76.053	138.6670
20.600000	76.230	137.1325
20.900000	76.408	135.6114
21.200001	76.587	134.0583
21.400000	76.702	132.9892
21.799999	76.915	130.7772
22.000000	77.010	129.6508
22.400000	77.175	127.4113
22.700001	77.280	125.7915
23.000000	77.374	124.2444
23.299999	77.463	122.7690
23.600000	77.551	121.3499
24.000000	77.666	119.5131
24.299999	77.753	118.1643
24.700001	77.866	116.4042
25.000000	77.953	115.1178
25.400000	78.072	113.4442
25.799999	78.198	111.7949
26.200001	78.330	110.1415
26.500000	78.431	108.8939
26.900000	78.562	107.2386
27.200001	78.660	106.0222
27.600000	78.793	104.4506
28.000000	78.932	102.9227
28.500000	79.117	101.0031
29.000000	79.299	98.9896
29.500000	79.459	96.8858
30.000000	79.583	94.8002
30.400000	79.659	93.2261
30.700001	79.707	92.1243
31.100000	79.764	90.7598
31.500000	79.820	89.4895
32.000000	79.892	87.9810
32.500000	79.963	86.5151
33.000000	80.033	85.0684
33.500000	80.101	83.6377
34.000000	80.168	82.2271
34.500000	80.237	80.8358
35.000000	80.309	79.4522
35.500000	80.385	78.0619
36.000000	80.460	76.6664
36.500000	80.530	75.2905
37.000000	80.597	73.9677
37.500000	80.662	72.7161
38.200001	80.758	71.0604
38.700001	80.828	69.9060
39.500000	80.933	68.0360
40.000000	80.989	66.8391
40.599998	81.039	65.3860
41.200001	81.073	63.9370
41.799999	81.095	62.5107
42.500000	81.116	60.8797
43.099998	81.137	59.4916
43.700001	81.163	58.0997
44.400002	81.199	56.5035
45.000000	81.241	55.1957
45.500000	81.284	54.1406
46.200001	81.350	52.6931
46.799999	81.399	51.5249
47.500000	81.442	50.3504
48.200001	81.474	49.4069
48.700001	81.491	48.8817
49.400002	81.519	48.4034
50.000000	81.579	48.1163
50.799999	81.713	47.2896
51.500000	81.792	45.7686
52.200001	81.754	43.8902
53.000000	81.601	42.0902
53.799999	81.449	40.7680
54.500000	81.355	39.6904
55.200001	81.286	38.5722
56.000000	81.226	37.3009
57.000000	81.164	35.8047
58.000000	81.096	34.6036
59.000000	81.038	33.8383
60.000000	81.001	33.2497
60.799999	80.958	32.8017
61.500000	80.904	32.5290
62.200001	80.854	32.4304
63.000000	80.830	32.4766
64.000000	80.882	32.5493
65.000000	81.032	32.3198
66.000000	81.246	31.5276
67.000000	81.468	30.1016
68.000000	81.647	28.1496
69.000000	81.749	25.9012
70.000000	81.767	23.6100
71.000000	81.709	21.4678
72.000000	81.597	19.5730
73.000000	81.450	17.9468
74.000000	81.283	16.5847
75.000000	81.107	15.4911
76.199997	80.896	14.5424
77.500000	80.687	13.9343
78.800003	80.508	13.6730
80.000000	80.374	13.6330
81.199997	80.267	13.7120
82.500000	80.183	13.8998
83.800003	80.138	14.1318
85.000000	80.135	14.3026
86.199997	80.165	14.3603
87.500000	80.223	14.2452
88.500000	80.274	14.0398
90.000000	80.351	13.5911
91.199997	80.406	13.1378
92.500000	80.459	12.5638
93.800003	80.506	11.8635
95.000000	80.538	11.0641
96.199997	80.551	10.1572
97.500000	80.540	9.1638
98.800003	80.508	8.2753
100.000000	80.468	7.6216
101.500000	80.416	7.0576
103.000000	80.382	6.6957
104.400002	80.375	6.3877
106.000000	80.395	5.8855
107.500000	80.420	5.1990
109.000000	80.430	4.3952
110.599998	80.423	3.5596
112.000000	80.412	2.8873
113.800003	80.409	2.0284
115.000000	80.416	1.3999
117.199997	80.439	0.0851
118.000000	80.442	-0.4280
120.599998	80.403	-1.9832
122.000000	80.354	-2.6496
124.099998	80.269	-3.5206
125.000000	80.232	-3.8913
126.500000	80.171	-4.5261
128.000000	80.113	-5.1727
131.500000	79.988	-6.6482
132.000000	79.969	-6.8513
134.000000	79.884	-7.6430
136.000000	79.784	-8.3752
138.000000	79.677	-8.9971
140.000000	79.575	-9.5072
143.000000	79.442	-10.1660
145.000000	79.364	-10.6042
147.500000	79.272	-11.1837
150.000000	79.179	-11.7683
152.500000	79.080	-12.3358
155.000000	78.973	-12.9038
157.500000	78.860	-13.4364
160.000000	78.747	-13.8668
162.500000	78.636	-14.1761
165.000000	78.528	-14.4265
167.500000	78.425	-14.6920
170.000000	78.326	-14.9904
172.500000	78.232	-15.2889
175.000000	78.136	-15.5645
177.500000	78.035	-15.8066
180.000000	77.928	-16.0083
182.500000	77.818	-16.1599
185.000000	77.707	-16.2413
187.500000	77.601	-16.2391
190.000000	77.503	-16.1609
192.500000	77.417	-16.0337
195.000000	77.339	-15.8857
197.500000	77.270	-15.7422
200.000000	77.206	-15.6220
203.000000	77.130	-15.5117
206.000000	77.052	-15.4148
209.000000	76.973	-15.3054
212.000000	76.899	-15.1700
214.000000	76.852	-15.0656
218.000000	76.768	-14.8359
220.000000	76.729	-14.7140
224.000000	76.656	-14.4583
227.000000	76.603	-14.2567
230.000000	76.553	-14.0465
233.000000	76.508	-13.8325
236.000000	76.465	-13.6216
240.000000	76.414	-13.3330
243.000000	76.382	-13.0970
247.000000	76.346	-12.7680
250.000000	76.325	-12.5242
254.000000	76.304	-12.2142
258.000000	76.286	-11.9446
262.000000	76.272	-11.7437
265.000000	76.262	-11.6292
269.000000	76.248	-11.4941
272.000000	76.236	-11.3947
276.000000	76.218	-11.2604
280.000000	76.200	-11.1212
285.000000	76.178	-10.9397
290.000000	76.156	-10.7509
295.000000	76.136	-10.5570
300.000000	76.123	-10.3691
304.000000	76.121	-10.2402
307.000000	76.121	-10.1592
311.000000	76.121	-10.0667
315.000000	76.120	-9.9855
320.000000	76.120	-9.8923
325.000000	76.119	-9.8080
330.000000	76.120	-9.7354
335.000000	76.123	-9.6870
340.000000	76.126	-9.6851
345.000000	76.124	-9.7322
350.000000	76.116	-9.7998
355.000000	76.104	-9.8550
360.000000	76.092	-9.8884
365.000000	76.083	-9.9092
370.000000	76.073	-9.9303
375.000000	76.056	-9.9535
382.000000	76.025	-9.9517
387.000000	76.002	-9.8972
395.000000	75.979	-9.7310
400.000000	75.978	-9.6300
406.000000	75.987	-9.5819
412.000000	76.001	-9.6346
418.000000	76.009	-9.7579
425.000000	76.005	-9.9370
431.000000	75.992	-10.0990
437.000000	75.975	-10.2675
444.000000	75.953	-10.4751
450.000000	75.932	-10.6617
455.000000	75.913	-10.8237
462.000000	75.884	-11.0695
468.000000	75.854	-11.3108
475.000000	75.812	-11.6399
482.000000	75.759	-12.0208
487.000000	75.713	-12.3102
494.000000	75.634	-12.7029
500.000000	75.556	-13.0074
508.000000	75.436	-13.3564
515.000000	75.321	-13.6125
522.000000	75.195	-13.8326
530.000000	75.037	-14.0263
538.000000	74.863	-14.1218
545.000000	74.702	-14.1194
552.000000	74.535	-14.0624
560.000000	74.327	-13.9235
570.000000	74.038	-13.5371
580.000000	73.724	-12.8365
590.000000	73.394	-11.7823
600.000000	73.051	-10.3199
608.000000	72.778	-8.7945
615.000000	72.548	-7.1746
622.000000	72.338	-5.2961
630.000000	72.133	-2.8796
640.000000	71.940	0.4180
650.000000	71.813	3.9128
660.000000	71.745	7.6216
670.000000	71.749	11.6069
680.000000	71.853	15.7864
690.000000	72.069	19.9962
700.000000	72.403	24.1133
710.000000	72.862	27.9366
720.000000	73.423	31.2043
730.000000	74.047	33.7487
740.000000	74.693	35.5111
750.000000	75.329	36.5397
762.000000	76.058	36.9824
775.000000	76.796	36.6621
788.000000	77.467	35.6337
800.000000	78.020	34.2057
812.000000	78.508	32.4371
825.000000	78.963	30.2366
838.000000	79.345	27.8411
850.000000	79.637	25.5226
862.000000	79.872	23.1489
875.000000	80.065	20.5771
885.000000	80.174	18.6404
900.000000	80.279	15.8519
912.000000	80.318	13.7455
925.000000	80.321	11.6227
938.000000	80.287	9.7029
950.000000	80.230	8.1337
962.000000	80.154	6.7675
975.000000	80.055	5.5197
988.000000	79.944	4.5240
1000.000000	79.837	3.8502
1015.000000	79.712	3.3616
1030.000000	79.627	3.2048
1044.000000	79.604	3.1617
1060.000000	79.632	2.9359
1075.000000	79.675	2.4258
1090.000000	79.704	1.6784
1106.000000	79.707	0.7245
1120.000000	79.680	-0.1730
1138.000000	79.594	-1.2867
1150.000000	79.507	-1.9010
1172.000000	79.317	-2.5999
1180.000000	79.247	-2.7211
1206.000000	79.041	-2.7550
1220.000000	78.948	-2.6188
1241.000000	78.832	-2.3237
1250.000000	78.789	-2.1855
1265.000000	78.719	-1.9416
1280.000000	78.649	-1.6490
1315.000000	78.504	-0.6129
1320.000000	78.488	-0.4294
1340.000000	78.442	0.3441
1360.000000	78.419	1.1412
1380.000000	78.413	1.9437
1400.000000	78.423	2.7500
1430.000000	78.472	3.9385
1450.000000	78.523	4.6869
1475.000000	78.602	5.5511
1500.000000	78.692	6.3423
1525.000000	78.792	7.0801
1550.000000	78.902	7.7640
1575.000000	79.021	8.3741
1600.000000	79.146	8.9066
1625.000000	79.274	9.3715
1650.000000	79.404	9.7740
1675.000000	79.535	10.1168
1700.000000	79.665	10.4076
1725.000000	79.793	10.6525
1750.000000	79.919	10.8552
1775.000000	80.040	11.0253
1800.000000	80.157	11.1753
1825.000000	80.271	11.3152
1850.000000	80.383	11.4531
1875.000000	80.491	11.5946
1900.000000	80.597	11.7465
1925.000000	80.701	11.9195
1950.000000	80.805	12.1230
1975.000000	80.914	12.3569
2000.000000	81.029	12.6082
2030.000000	81.177	12.9003
2060.000000	81.331	13.1464
2090.000000	81.485	13.3354
2120.000000	81.634	13.4931
2140.000000	81.728	13.6066
2180.000000	81.909	13.9305
2200.000000	82.001	14.1625
2240.000000	82.201	14.7727
2270.000000	82.372	15.3442
2300.000000	82.571	15.9954
2330.000000	82.805	16.6873
2360.000000	83.079	17.3599
2400.000000	83.511	18.1158
2430.000000	83.885	18.4785
2470.000000	84.442	18.5127
2500.000000	84.885	18.0767
2540.000000	85.474	16.7373
2580.000000	86.004	14.5068
2620.000000	86.428	11.5958
2650.000000	86.662	9.2017
2690.000000	86.874	6.0488
2720.000000	86.974	3.8782
2760.000000	87.058	1.3810
2800.000000	87.128	-0.6399
2850.000000	87.251	-2.6848
2900.000000	87.441	-4.5876
2950.000000	87.683	-6.7670
3000.000000	87.924	-9.4126
3040.000000	88.092	-11.7937
3070.000000	88.202	-13.6730
3110.000000	88.334	-16.2870
3150.000000	88.450	-19.0742
3200.000000	88.558	-22.8947
3250.000000	88.596	-27.1071
3300.000000	88.530	-31.5677
3350.000000	88.340	-35.9758
3400.000000	88.035	-40.0022
3450.000000	87.644	-43.4296
3500.000000	87.205	-46.2059
3550.000000	86.751	-48.4046
3600.000000	86.297	-50.1426
3650.000000	85.850	-51.5107
3700.000000	85.411	-52.5516
3750.000000	84.981	-53.2847
3820.000000	84.406	-53.8479
3870.000000	84.019	-53.9821
3950.000000	83.443	-53.8588
4000.000000	83.104	-53.5985
4060.000000	82.715	-53.0836
4120.000000	82.345	-52.3186
4180.000000	82.005	-51.2924
4250.000000	81.660	-49.8046
4310.000000	81.419	-48.3513
4370.000000	81.233	-46.8068
4440.000000	81.088	-44.9824
4500.000000	81.028	-43.4890
4550.000000	81.020	-42.3630
4620.000000	81.062	-41.0681
4680.000000	81.132	-40.2776
4750.000000	81.228	-39.7252
4820.000000	81.324	-39.4806
4870.000000	81.390	-39.4172
4940.000000	81.495	-39.4009
5000.000000	81.613	-39.4545
5080.000000	81.838	-39.7825
5150.000000	82.107	-40.5735
5220.000000	82.424	-42.1251
5300.000000	82.800	-45.1484
5380.000000	83.117	-49.7505
5450.000000	83.275	-55.0978
5520.000000	83.263	-61.4622
5600.000000	82.989	-69.4247
5700.000000	82.225	-79.1940
5800.000000	81.038	-87.4481
5900.000000	79.535	-93.4923
6000.000000	77.836	-97.3427
6080.000000	76.396	-99.0535
6150.000000	75.098	-99.6749
6220.000000	73.775	-99.5682
6300.000000	72.245	-98.7305
6400.000000	70.318	-97.1331
6500.000000	68.357	-96.0930
6600.000000	66.301	-98.3002
6700.000000	64.053	-109.3441
6800.000000	61.712	-137.4780
6900.000000	60.380	174.5478
7000.000000	61.408	121.6973
7100.000000	63.426	83.1675
7200.000000	65.099	61.7863
7300.000000	66.226	51.5000
7400.000000	66.946	47.4186
7500.000000	67.461	47.1295
7620.000000	68.090	49.9973
7750.000000	69.059	55.0688
7880.000000	70.379	59.9253
8000.000000	71.756	62.6016
8120.000000	73.114	62.8790
8250.000000	74.449	60.5035
8380.000000	75.571	55.5543
8500.000000	76.344	48.8591
8620.000000	76.789	40.5046
8750.000000	76.835	30.5179
8850.000000	76.540	23.0909
9000.000000	75.581	14.2090
9120.000000	74.457	10.2688
9250.000000	73.069	9.4863
9380.000000	71.742	11.4460
9500.000000	70.737	14.4308
9620.000000	69.983	17.5048
9750.000000	69.358	20.3198
9880.000000	68.787	22.6461
10000.000000	68.212	24.8463
10150.000000	67.392	28.5870
10300.000000	66.551	34.1237
10440.000000	65.916	40.7621
10600.000000	65.537	49.1420
10750.000000	65.561	56.8434
10900.000000	65.924	63.8561
11060.000000	66.665	70.1599
11200.000000	67.572	74.0164
11380.000000	68.835	74.9905
11500.000000	69.475	72.4415
11720.000000	69.698	64.0599
11800.000000	69.466	61.5721
12060.000000	68.332	60.4736
12200.000000	68.086	63.0027
12410.000000	68.638	65.5380
12500.000000	69.059	64.7796
12650.000000	69.674	60.1764
12800.000000	69.916	52.1393
13150.000000	68.539	33.0307
13200.000000	68.161	31.3492
13400.000000	66.456	27.8171
13600.000000	64.811	27.6563
13800.000000	63.571	28.2698
14000.000000	62.842	27.7167
14300.000000	62.541	20.5936
14500.000000	62.501	8.8698
14750.000000	62.106	-14.9296
15000.000000	61.128	-48.1115
15250.000000	59.661	-88.5889
15500.000000	57.981	-131.2231
15750.000000	56.572	-169.2140
16000.000000	55.851	161.4208
16250.000000	55.889	140.4966
16500.000000	56.591	124.6274
16750.000000	57.634	108.7690
17000.000000	58.455	88.9662
17250.000000	58.577	65.3425
17500.000000	57.807	42.0952
17750.000000	56.247	23.7739
18000.000000	54.267	11.5260
18250.000000	52.505	2.1893
18500.000000	51.548	-9.4929
18750.000000	51.252	-27.2480
19000.000000	50.992	-51.3851
19250.000000	50.361	-79.1783
19500.000000	49.362	-106.5881
19750.000000	48.303	-129.4875
