* Measurement data measured by REW V5.20.13
* Source: EXCL: Headset (USB-C to 3.5mm Headphone Jack Adapter), MICROPHONE (Master Volume), 0, volume: 0.260. Timing signal peak level -9.9 dBFS, measurement signal peak level -9.9 dBFS
* Format: 256k Log Swept Sine, 1 sweep at -20.0 dBFS using an acoustic timing reference
* Dated: May 28, 2023 6:26:21 PM
* REW Settings:
*  C-weighting compensation: Off
*  Target level: 75.0 dB
* Note: 
* Measurement: VectorFinese Headamame L
* Smoothing: 1/12 octave
* Frequency Step: 1/48 octave
* Start Frequency: 20.000 Hz
*
* Freq(Hz)	SPL(dB)	Phase(degrees)
20.000000	88.338	-163.5023
20.299999	88.635	-165.1458
20.600000	88.929	-166.7571
20.900000	89.219	-168.3507
21.200001	89.504	-169.9354
21.400000	89.689	-170.9860
21.799999	90.049	-173.0643
22.000000	90.224	-174.0873
22.400000	90.566	-176.0937
22.700001	90.815	-177.5665
23.000000	91.061	-179.0208
23.299999	91.302	179.5334
23.600000	91.536	178.0911
24.000000	91.837	176.1741
24.299999	92.054	174.7501
24.700001	92.331	172.8857
25.000000	92.531	171.5215
25.400000	92.792	169.7491
25.799999	93.046	168.0197
26.200001	93.295	166.3202
26.500000	93.478	165.0610
26.900000	93.717	163.4026
27.200001	93.891	162.1755
27.600000	94.120	160.5616
28.000000	94.343	158.9707
28.500000	94.614	157.0124
29.000000	94.877	155.0949
29.500000	95.132	153.2278
30.000000	95.382	151.4058
30.400000	95.579	149.9674
30.700001	95.725	148.8946
31.100000	95.914	147.4731
31.500000	96.098	146.0696
32.000000	96.322	144.3494
32.500000	96.541	142.6576
33.000000	96.756	140.9667
33.500000	96.960	139.2653
34.000000	97.152	137.5760
34.500000	97.332	135.9360
35.000000	97.507	134.3577
35.500000	97.679	132.8176
36.000000	97.849	131.2845
36.500000	98.012	129.7516
37.000000	98.167	128.2393
37.500000	98.317	126.7679
38.200001	98.524	124.7646
38.700001	98.672	123.3412
39.500000	98.898	121.0425
40.000000	99.030	119.6126
40.599998	99.180	117.9313
41.200001	99.323	116.2926
41.799999	99.460	114.6874
42.500000	99.610	112.8565
43.099998	99.732	111.3328
43.700001	99.848	109.8523
44.400002	99.977	108.1700
45.000000	100.082	106.7642
45.500000	100.165	105.6224
46.200001	100.277	104.0706
46.799999	100.370	102.7740
47.500000	100.475	101.2875
48.200001	100.574	99.8325
48.700001	100.641	98.8200
49.400002	100.732	97.4452
50.000000	100.808	96.3036
50.799999	100.907	94.8308
51.500000	100.991	93.5902
52.200001	101.074	92.3926
53.000000	101.168	91.0651
53.799999	101.260	89.7675
54.500000	101.340	88.6484
55.200001	101.417	87.5406
56.000000	101.501	86.2910
57.000000	101.602	84.7601
58.000000	101.699	83.2659
59.000000	101.795	81.8056
60.000000	101.888	80.3626
60.799999	101.957	79.2252
61.500000	102.012	78.2620
62.200001	102.063	77.3439
63.000000	102.118	76.3598
64.000000	102.186	75.2356
65.000000	102.260	74.2235
66.000000	102.345	73.2968
67.000000	102.448	72.4154
68.000000	102.572	71.5232
69.000000	102.716	70.5500
70.000000	102.873	69.4272
71.000000	103.030	68.1130
72.000000	103.173	66.6161
73.000000	103.290	64.9929
74.000000	103.378	63.3220
75.000000	103.439	61.6767
76.199997	103.483	59.8026
77.500000	103.509	57.9296
78.800003	103.524	56.2171
80.000000	103.534	54.7565
81.199997	103.543	53.3876
82.500000	103.550	51.9940
83.800003	103.556	50.6893
85.000000	103.559	49.5618
86.199997	103.563	48.5034
87.500000	103.567	47.4261
88.500000	103.570	46.6400
90.000000	103.575	45.5216
91.199997	103.578	44.6749
92.500000	103.580	43.8006
93.800003	103.583	42.9659
95.000000	103.585	42.2286
96.199997	103.589	41.5241
97.500000	103.597	40.7988
98.800003	103.610	40.1122
100.000000	103.627	39.5120
101.500000	103.653	38.8036
103.000000	103.686	38.1289
104.400002	103.722	37.5087
106.000000	103.772	36.7812
107.500000	103.828	36.0508
109.000000	103.890	35.2608
110.599998	103.956	34.3874
112.000000	104.014	33.6348
113.800003	104.089	32.7036
115.000000	104.142	32.0948
117.199997	104.245	30.9545
118.000000	104.284	30.5222
120.599998	104.411	29.0312
122.000000	104.477	28.1801
124.099998	104.569	26.8632
125.000000	104.607	26.2889
126.500000	104.666	25.3232
128.000000	104.721	24.3530
131.500000	104.841	22.1069
132.000000	104.858	21.7891
134.000000	104.924	20.5160
136.000000	104.989	19.2215
138.000000	105.053	17.8868
140.000000	105.113	16.5064
143.000000	105.186	14.3755
145.000000	105.222	12.9412
147.500000	105.255	11.1587
150.000000	105.272	9.4115
152.500000	105.278	7.7191
155.000000	105.277	6.0863
157.500000	105.272	4.5034
160.000000	105.266	2.9480
162.500000	105.260	1.3940
165.000000	105.252	-0.1758
167.500000	105.239	-1.7640
170.000000	105.219	-3.3663
172.500000	105.190	-4.9784
175.000000	105.152	-6.5941
177.500000	105.104	-8.2045
180.000000	105.048	-9.8000
182.500000	104.982	-11.3706
185.000000	104.907	-12.9062
187.500000	104.824	-14.3993
190.000000	104.735	-15.8477
192.500000	104.641	-17.2528
195.000000	104.542	-18.6160
197.500000	104.439	-19.9375
200.000000	104.332	-21.2189
203.000000	104.202	-22.7078
206.000000	104.069	-24.1506
209.000000	103.933	-25.5546
212.000000	103.793	-26.9210
214.000000	103.698	-27.8084
218.000000	103.503	-29.5167
220.000000	103.404	-30.3358
224.000000	103.206	-31.9148
227.000000	103.059	-33.0665
230.000000	102.911	-34.2086
233.000000	102.760	-35.3486
236.000000	102.605	-36.4840
240.000000	102.386	-37.9720
243.000000	102.214	-39.0505
247.000000	101.975	-40.4196
250.000000	101.790	-41.3909
254.000000	101.538	-42.6165
258.000000	101.281	-43.7732
262.000000	101.018	-44.8673
265.000000	100.814	-45.6401
269.000000	100.534	-46.5834
272.000000	100.316	-47.2034
276.000000	100.017	-47.8765
280.000000	99.718	-48.3475
285.000000	99.365	-48.6888
290.000000	99.049	-48.9180
295.000000	98.758	-49.2078
300.000000	98.463	-49.5671
304.000000	98.216	-49.8306
307.000000	98.025	-49.9803
311.000000	97.765	-50.0977
315.000000	97.502	-50.1169
320.000000	97.175	-50.0076
325.000000	96.851	-49.7533
330.000000	96.536	-49.3533
335.000000	96.235	-48.8134
340.000000	95.952	-48.1555
345.000000	95.686	-47.4076
350.000000	95.436	-46.5919
355.000000	95.201	-45.7202
360.000000	94.982	-44.7985
365.000000	94.780	-43.8328
370.000000	94.593	-42.8301
375.000000	94.423	-41.7997
382.000000	94.212	-40.3286
387.000000	94.081	-39.2693
395.000000	93.911	-37.5972
400.000000	93.830	-36.6058
406.000000	93.758	-35.5227
412.000000	93.703	-34.5961
418.000000	93.657	-33.8397
425.000000	93.604	-33.1521
431.000000	93.556	-32.7042
437.000000	93.501	-32.3646
444.000000	93.425	-32.0796
450.000000	93.348	-31.9146
455.000000	93.275	-31.8234
462.000000	93.156	-31.7458
468.000000	93.037	-31.6996
475.000000	92.881	-31.6414
482.000000	92.706	-31.5657
487.000000	92.569	-31.4911
494.000000	92.358	-31.3215
500.000000	92.160	-31.0748
508.000000	91.884	-30.5711
515.000000	91.638	-29.9919
522.000000	91.387	-29.3064
530.000000	91.093	-28.3780
538.000000	90.797	-27.2972
545.000000	90.537	-26.2556
552.000000	90.272	-25.1317
560.000000	89.953	-23.7061
570.000000	89.525	-21.5704
580.000000	89.074	-18.8655
590.000000	88.623	-15.4408
600.000000	88.211	-11.2087
608.000000	87.945	-7.3028
615.000000	87.775	-3.6108
622.000000	87.670	0.2559
630.000000	87.633	4.8213
640.000000	87.717	10.6162
650.000000	87.944	16.3243
660.000000	88.304	21.8329
670.000000	88.800	27.0342
680.000000	89.426	31.7369
690.000000	90.162	35.7233
700.000000	90.965	38.7862
710.000000	91.784	40.8198
720.000000	92.576	41.8877
730.000000	93.319	42.1618
740.000000	94.007	41.8105
750.000000	94.639	40.9520
762.000000	95.319	39.3727
775.000000	95.952	37.1424
788.000000	96.479	34.5800
800.000000	96.881	32.0784
812.000000	97.217	29.5281
825.000000	97.515	26.7483
838.000000	97.750	23.9771
850.000000	97.917	21.4561
862.000000	98.040	18.9904
875.000000	98.127	16.3888
885.000000	98.162	14.4462
900.000000	98.164	11.6741
912.000000	98.124	9.6346
925.000000	98.050	7.6467
938.000000	97.954	5.8911
950.000000	97.854	4.4595
962.000000	97.745	3.1891
975.000000	97.620	1.9809
988.000000	97.492	0.9513
1000.000000	97.377	0.1550
1015.000000	97.247	-0.6927
1030.000000	97.135	-1.4949
1044.000000	97.037	-2.2834
1060.000000	96.914	-3.2123
1075.000000	96.783	-4.0297
1090.000000	96.641	-4.7502
1106.000000	96.485	-5.4081
1120.000000	96.345	-5.8957
1138.000000	96.165	-6.4150
1150.000000	96.044	-6.7001
1172.000000	95.826	-7.1049
1180.000000	95.748	-7.2170
1206.000000	95.498	-7.4712
1220.000000	95.368	-7.5528
1241.000000	95.177	-7.6313
1250.000000	95.096	-7.6533
1265.000000	94.960	-7.6746
1280.000000	94.821	-7.6718
1315.000000	94.484	-7.5108
1320.000000	94.434	-7.4620
1340.000000	94.232	-7.1808
1360.000000	94.032	-6.7512
1380.000000	93.839	-6.1807
1400.000000	93.659	-5.4874
1430.000000	93.420	-4.2804
1450.000000	93.284	-3.4282
1475.000000	93.138	-2.3773
1500.000000	93.007	-1.3662
1525.000000	92.885	-0.3876
1550.000000	92.768	0.5873
1575.000000	92.659	1.5887
1600.000000	92.563	2.5908
1625.000000	92.476	3.5547
1650.000000	92.396	4.4968
1675.000000	92.326	5.4045
1700.000000	92.264	6.2139
1725.000000	92.199	6.9035
1750.000000	92.126	7.5104
1775.000000	92.048	8.0184
1800.000000	91.964	8.3080
1825.000000	91.844	8.2646
1850.000000	91.637	7.9578
1875.000000	91.277	7.8882
1900.000000	90.744	9.0701
1925.000000	90.158	12.3761
1950.000000	89.767	17.4015
1975.000000	89.713	22.5700
2000.000000	89.885	26.6699
2030.000000	90.149	30.1138
2060.000000	90.365	32.7330
2090.000000	90.542	35.1174
2120.000000	90.705	37.4654
2140.000000	90.814	39.0325
2180.000000	91.042	42.2022
2200.000000	91.167	43.8135
2240.000000	91.448	47.0616
2270.000000	91.687	49.5057
2300.000000	91.954	51.9780
2330.000000	92.256	54.5019
2360.000000	92.608	57.1010
2400.000000	93.195	60.6834
2430.000000	93.762	63.3643
2470.000000	94.732	66.5764
2500.000000	95.613	68.2597
2540.000000	96.883	68.6312
2580.000000	98.051	66.1287
2620.000000	98.924	61.0422
2650.000000	99.342	56.3067
2690.000000	99.608	49.9122
2720.000000	99.633	45.6212
2760.000000	99.514	41.0183
2800.000000	99.320	37.7699
2850.000000	99.108	35.2014
2900.000000	99.030	33.4650
2950.000000	99.098	31.5416
3000.000000	99.218	28.6302
3040.000000	99.254	25.4474
3070.000000	99.202	22.7101
3110.000000	98.995	18.9940
3150.000000	98.640	15.6851
3200.000000	98.046	12.5892
3250.000000	97.368	10.7217
3300.000000	96.672	9.8965
3350.000000	95.991	9.8491
3400.000000	95.332	10.3429
3450.000000	94.672	11.3318
3500.000000	93.980	13.0554
3550.000000	93.260	15.9633
3600.000000	92.589	20.3705
3650.000000	92.106	26.0689
3700.000000	91.935	32.3208
3750.000000	92.099	38.1654
3820.000000	92.701	44.1329
3870.000000	93.195	46.2819
3950.000000	93.753	46.4096
4000.000000	93.835	45.2973
4060.000000	93.610	44.2141
4120.000000	93.072	45.0068
4180.000000	92.389	48.8824
4250.000000	91.834	57.4803
4310.000000	92.003	67.1572
4370.000000	92.920	76.7265
4440.000000	94.496	84.4607
4500.000000	95.773	86.7262
4550.000000	96.599	86.0356
4620.000000	97.345	83.2172
4680.000000	97.678	80.8941
4750.000000	97.876	79.6667
4820.000000	98.072	80.4157
4870.000000	98.321	81.9623
4940.000000	98.930	84.9059
5000.000000	99.720	87.4523
5080.000000	101.063	89.6106
5150.000000	102.315	89.2571
5220.000000	103.431	86.3789
5300.000000	104.400	80.7691
5380.000000	105.061	74.3192
5450.000000	105.491	68.9203
5520.000000	105.871	63.7791
5600.000000	106.250	57.6732
5700.000000	106.514	49.3311
5800.000000	106.444	41.2682
5900.000000	106.137	34.8494
6000.000000	105.786	30.3073
6080.000000	105.579	27.5920
6150.000000	105.487	25.4778
6220.000000	105.477	23.2783
6300.000000	105.543	20.3119
6400.000000	105.664	15.4889
6500.000000	105.706	9.2360
6600.000000	105.548	1.9021
6700.000000	105.111	-5.6111
6800.000000	104.391	-12.1987
6900.000000	103.457	-17.0734
7000.000000	102.424	-20.0453
7100.000000	101.415	-21.4815
7200.000000	100.520	-22.0536
7300.000000	99.753	-22.3788
7400.000000	99.064	-22.6904
7500.000000	98.397	-22.7994
7620.000000	97.638	-22.3401
7750.000000	96.974	-21.5603
7880.000000	96.490	-21.7673
8000.000000	96.024	-23.2474
8120.000000	95.363	-24.9446
8250.000000	94.422	-25.4076
8380.000000	93.458	-24.0173
8500.000000	92.771	-22.2115
8620.000000	92.325	-21.6188
8750.000000	91.861	-23.4143
8850.000000	91.261	-25.5860
9000.000000	89.731	-26.0032
9120.000000	88.057	-21.1613
9250.000000	86.183	-10.5897
9380.000000	84.838	4.0206
9500.000000	84.642	19.5106
9620.000000	85.559	34.0218
9750.000000	87.108	44.8572
9880.000000	88.587	49.7479
10000.000000	89.745	50.5385
10150.000000	90.921	48.4852
10300.000000	91.759	44.0637
10440.000000	92.168	38.7752
10600.000000	92.210	33.1776
10750.000000	91.985	29.7876
10900.000000	91.719	28.5235
11060.000000	91.611	28.8395
11200.000000	91.767	29.5413
11380.000000	92.276	29.6042
11500.000000	92.728	28.6325
11720.000000	93.614	24.1931
11800.000000	93.903	21.6260
12060.000000	94.483	10.5679
12200.000000	94.573	4.0162
12410.000000	94.641	-6.0015
12500.000000	94.675	-10.8010
12650.000000	94.662	-20.0276
12800.000000	94.438	-30.5508
13150.000000	92.736	-53.6497
13200.000000	92.387	-56.1932
13400.000000	91.037	-64.5739
13600.000000	90.296	-73.1649
13800.000000	90.396	-87.8185
14000.000000	90.671	-112.5097
14300.000000	90.122	-164.4254
14500.000000	88.939	159.0156
14750.000000	86.673	123.7493
15000.000000	84.426	107.1162
15250.000000	84.009	96.9292
15500.000000	84.791	81.7927
15750.000000	85.609	65.3179
16000.000000	86.593	51.2083
16250.000000	87.900	37.4823
16500.000000	89.092	19.8630
16750.000000	89.628	-2.3519
17000.000000	89.371	-25.5779
17250.000000	88.523	-46.7579
17500.000000	87.357	-65.6740
17750.000000	85.998	-82.9680
18000.000000	84.421	-97.8663
18250.000000	82.543	-107.2055
18500.000000	80.623	-108.2291
18750.000000	79.828	-104.9274
19000.000000	80.817	-106.1619
19250.000000	82.442	-117.1570
19500.000000	83.775	-136.2632
19750.000000	84.594	-156.8488
