* Measurement data measured by REW V5.20.13
* Source: EXCL: Headset (USB-C to 3.5mm Headphone Jack Adapter), MICROPHONE (Master Volume), 0, volume: 0.260
* Format: 256k Log Swept Sine, 1 sweep at -12.0 dBFS with no timing reference
* Dated: Dec 28, 2023 10:52:00 AM
* REW Settings:
*  C-weighting compensation: Off
*  Target level: 75.0 dB
* Note: Perforated Leather Pads
* Measurement: Headamame V1 50mm Peerl
* Smoothing: 1/12 octave
* Frequency Step: 1/48 octave
* Start Frequency: 20.000 Hz
*
* Freq(Hz)	SPL(dB)	Phase(degrees)
20.000000	78.486	174.8655
20.299999	78.744	173.0182
20.600000	78.997	171.1678
20.900000	79.243	169.3078
21.200001	79.477	167.4469
21.400000	79.627	166.2148
21.799999	79.914	163.7895
22.000000	80.052	162.5993
22.400000	80.320	160.2568
22.700001	80.515	158.5218
23.000000	80.702	156.8016
23.299999	80.881	155.1035
23.600000	81.052	153.4432
24.000000	81.275	151.3144
24.299999	81.442	149.7794
24.700001	81.674	147.7723
25.000000	81.852	146.2475
25.400000	82.087	144.1332
25.799999	82.306	141.9271
26.200001	82.496	139.7128
26.500000	82.622	138.1193
26.900000	82.779	136.1515
27.200001	82.898	134.7980
27.600000	83.070	133.0930
28.000000	83.256	131.4024
28.500000	83.492	129.1912
29.000000	83.707	126.8843
29.500000	83.890	124.6105
30.000000	84.053	122.4858
30.400000	84.180	120.9000
30.700001	84.276	119.7537
31.100000	84.407	118.2469
31.500000	84.538	116.7360
32.000000	84.694	114.8282
32.500000	84.837	112.9180
33.000000	84.967	111.0413
33.500000	85.088	109.2225
34.000000	85.206	107.4586
34.500000	85.323	105.7235
35.000000	85.437	103.9888
35.500000	85.546	102.2476
36.000000	85.645	100.5190
36.500000	85.737	98.8291
37.000000	85.824	97.1912
37.500000	85.910	95.5995
38.200001	86.028	93.4201
38.700001	86.109	91.8834
39.500000	86.232	89.4620
40.000000	86.302	87.9828
40.599998	86.384	86.2460
41.200001	86.462	84.5373
41.799999	86.536	82.8395
42.500000	86.611	80.8722
43.099998	86.664	79.2244
43.700001	86.709	77.6411
44.400002	86.756	75.8831
45.000000	86.795	74.4316
45.500000	86.825	73.2464
46.200001	86.863	71.6234
46.799999	86.891	70.2737
47.500000	86.920	68.7421
48.200001	86.944	67.2408
48.700001	86.956	66.1904
49.400002	86.968	64.7706
50.000000	86.976	63.6026
50.799999	86.990	62.0858
51.500000	87.002	60.7767
52.200001	87.011	59.4968
53.000000	87.019	58.1003
53.799999	87.029	56.7957
54.500000	87.041	55.7361
55.200001	87.060	54.7510
56.000000	87.093	53.6887
57.000000	87.146	52.3774
58.000000	87.199	51.0532
59.000000	87.252	49.7023
60.000000	87.297	48.2223
60.799999	87.313	46.9578
61.500000	87.311	45.8621
62.200001	87.303	44.8077
63.000000	87.292	43.6476
64.000000	87.281	42.2421
65.000000	87.274	40.8719
66.000000	87.269	39.5424
67.000000	87.263	38.2692
68.000000	87.254	37.0558
69.000000	87.240	35.8979
70.000000	87.220	34.7875
71.000000	87.192	33.7225
72.000000	87.157	32.7089
73.000000	87.120	31.7542
74.000000	87.082	30.8634
75.000000	87.045	30.0443
76.199997	87.005	29.1697
77.500000	86.974	28.3420
78.800003	86.956	27.5865
80.000000	86.950	26.9202
81.199997	86.953	26.2642
82.500000	86.969	25.5388
83.800003	86.995	24.7778
85.000000	87.026	24.0382
86.199997	87.060	23.2630
87.500000	87.098	22.3825
88.500000	87.127	21.6756
90.000000	87.169	20.5660
91.199997	87.201	19.6318
92.500000	87.232	18.5724
93.800003	87.257	17.4786
95.000000	87.273	16.4534
96.199997	87.283	15.4205
97.500000	87.285	14.3000
98.800003	87.276	13.1913
100.000000	87.260	12.1874
101.500000	87.232	10.9579
103.000000	87.193	9.7504
104.400002	87.148	8.6479
106.000000	87.084	7.4434
107.500000	87.013	6.4027
109.000000	86.934	5.4673
110.599998	86.841	4.5869
112.000000	86.756	3.9071
113.800003	86.648	3.1331
115.000000	86.583	2.6658
117.199997	86.482	1.9004
118.000000	86.451	1.6614
120.599998	86.370	1.1343
122.000000	86.344	0.9985
124.099998	86.329	0.8074
125.000000	86.329	0.6904
126.500000	86.334	0.4300
128.000000	86.344	0.0914
131.500000	86.378	-0.9202
132.000000	86.383	-1.0820
134.000000	86.400	-1.7662
136.000000	86.413	-2.5089
138.000000	86.419	-3.2891
140.000000	86.422	-4.0698
143.000000	86.420	-5.1971
145.000000	86.417	-5.9172
147.500000	86.412	-6.7935
150.000000	86.412	-7.6746
152.500000	86.418	-8.6003
155.000000	86.425	-9.5856
157.500000	86.431	-10.6221
160.000000	86.430	-11.6849
162.500000	86.420	-12.7609
165.000000	86.402	-13.8687
167.500000	86.375	-15.0188
170.000000	86.336	-16.1924
172.500000	86.284	-17.3525
175.000000	86.217	-18.4644
177.500000	86.138	-19.5085
180.000000	86.053	-20.4813
182.500000	85.966	-21.3854
185.000000	85.879	-22.2316
187.500000	85.794	-23.0433
190.000000	85.709	-23.8393
192.500000	85.619	-24.6145
195.000000	85.520	-25.3427
197.500000	85.414	-25.9940
200.000000	85.307	-26.5505
203.000000	85.185	-27.0972
206.000000	85.079	-27.5508
209.000000	84.990	-27.9820
212.000000	84.913	-28.4569
214.000000	84.865	-28.8109
218.000000	84.761	-29.5826
220.000000	84.704	-29.9764
224.000000	84.575	-30.7142
227.000000	84.472	-31.1794
230.000000	84.367	-31.5464
233.000000	84.266	-31.8192
236.000000	84.174	-32.0155
240.000000	84.072	-32.1940
243.000000	84.014	-32.2997
247.000000	83.957	-32.4639
250.000000	83.928	-32.6342
254.000000	83.901	-32.9403
258.000000	83.882	-33.3380
262.000000	83.869	-33.8294
265.000000	83.860	-34.2651
269.000000	83.846	-34.9457
272.000000	83.829	-35.5248
276.000000	83.795	-36.3505
280.000000	83.749	-37.1900
285.000000	83.679	-38.2221
290.000000	83.602	-39.2422
295.000000	83.520	-40.2808
300.000000	83.430	-41.3376
304.000000	83.351	-42.1763
307.000000	83.286	-42.7990
311.000000	83.193	-43.6210
315.000000	83.092	-44.4229
320.000000	82.956	-45.3724
325.000000	82.815	-46.2513
330.000000	82.674	-47.0704
335.000000	82.535	-47.8615
340.000000	82.398	-48.6626
345.000000	82.258	-49.4901
350.000000	82.108	-50.3290
355.000000	81.949	-51.1483
360.000000	81.782	-51.9241
365.000000	81.610	-52.6519
370.000000	81.432	-53.3402
375.000000	81.249	-53.9943
382.000000	80.980	-54.8412
387.000000	80.780	-55.3831
395.000000	80.448	-56.1082
400.000000	80.236	-56.4606
406.000000	79.981	-56.7897
412.000000	79.728	-57.0386
418.000000	79.474	-57.2236
425.000000	79.171	-57.3352
431.000000	78.910	-57.2859
437.000000	78.658	-57.0837
444.000000	78.388	-56.7322
450.000000	78.177	-56.4335
455.000000	78.010	-56.2262
462.000000	77.780	-55.9901
468.000000	77.579	-55.8055
475.000000	77.341	-55.5818
482.000000	77.099	-55.3416
487.000000	76.923	-55.1631
494.000000	76.666	-54.8845
500.000000	76.436	-54.5837
508.000000	76.119	-54.0657
515.000000	75.838	-53.5060
522.000000	75.551	-52.8421
530.000000	75.216	-51.9317
538.000000	74.878	-50.8262
545.000000	74.587	-49.6779
552.000000	74.309	-48.3968
560.000000	74.008	-46.8544
570.000000	73.636	-44.8445
580.000000	73.254	-42.6424
590.000000	72.862	-40.0936
600.000000	72.470	-37.0758
608.000000	72.168	-34.2386
615.000000	71.930	-31.4195
622.000000	71.736	-28.3546
630.000000	71.578	-24.7003
640.000000	71.459	-20.0528
650.000000	71.411	-15.3145
660.000000	71.436	-10.4097
670.000000	71.557	-5.3239
680.000000	71.797	-0.1654
690.000000	72.167	4.9059
700.000000	72.670	9.6960
710.000000	73.290	13.9979
720.000000	73.999	17.6484
730.000000	74.769	20.5361
740.000000	75.565	22.5971
750.000000	76.361	23.8535
762.000000	77.290	24.3934
775.000000	78.239	23.8950
788.000000	79.100	22.4444
800.000000	79.809	20.4607
812.000000	80.438	18.0187
825.000000	81.032	14.9854
838.000000	81.539	11.6489
850.000000	81.931	8.3703
862.000000	82.254	4.9534
875.000000	82.524	1.1519
885.000000	82.676	-1.7935
900.000000	82.819	-6.1504
912.000000	82.865	-9.5240
925.000000	82.851	-13.0134
938.000000	82.779	-16.2725
950.000000	82.668	-19.0344
962.000000	82.524	-21.5436
975.000000	82.339	-23.9761
988.000000	82.128	-26.1144
1000.000000	81.915	-27.8163
1015.000000	81.632	-29.5349
1030.000000	81.352	-30.7705
1044.000000	81.123	-31.5674
1060.000000	80.922	-32.3400
1075.000000	80.775	-33.2216
1090.000000	80.626	-34.3284
1106.000000	80.430	-35.5928
1120.000000	80.223	-36.5836
1138.000000	79.926	-37.5441
1150.000000	79.724	-37.9887
1172.000000	79.363	-38.4652
1180.000000	79.238	-38.5447
1206.000000	78.864	-38.5699
1220.000000	78.686	-38.5291
1241.000000	78.435	-38.5137
1250.000000	78.326	-38.5203
1265.000000	78.137	-38.5068
1280.000000	77.937	-38.4083
1315.000000	77.462	-37.6315
1320.000000	77.398	-37.4584
1340.000000	77.157	-36.6711
1360.000000	76.942	-35.8038
1380.000000	76.746	-34.8995
1400.000000	76.563	-33.9507
1430.000000	76.309	-32.4042
1450.000000	76.155	-31.2910
1475.000000	75.984	-29.8150
1500.000000	75.840	-28.2577
1525.000000	75.731	-26.6785
1550.000000	75.651	-25.1824
1575.000000	75.581	-23.8016
1600.000000	75.507	-22.4525
1625.000000	75.435	-21.0674
1650.000000	75.370	-19.6320
1675.000000	75.314	-18.1463
1700.000000	75.272	-16.6175
1725.000000	75.244	-15.0577
1750.000000	75.231	-13.4793
1775.000000	75.235	-11.8956
1800.000000	75.254	-10.3254
1825.000000	75.287	-8.7887
1850.000000	75.329	-7.2941
1875.000000	75.375	-5.8244
1900.000000	75.426	-4.3541
1925.000000	75.483	-2.8702
1950.000000	75.549	-1.3624
1975.000000	75.626	0.1752
2000.000000	75.719	1.7376
2030.000000	75.855	3.6179
2060.000000	76.020	5.4427
2090.000000	76.206	7.1482
2120.000000	76.403	8.7205
2140.000000	76.536	9.7068
2180.000000	76.803	11.5806
2200.000000	76.935	12.4984
2240.000000	77.200	14.3807
2270.000000	77.407	15.8898
2300.000000	77.634	17.5264
2330.000000	77.898	19.2927
2360.000000	78.218	21.1282
2400.000000	78.746	23.5069
2430.000000	79.224	25.0963
2470.000000	79.971	26.6771
2500.000000	80.592	27.2122
2540.000000	81.437	26.7207
2580.000000	82.204	24.6740
2620.000000	82.795	21.3034
2650.000000	83.090	18.3082
2690.000000	83.292	14.3532
2720.000000	83.328	11.7906
2760.000000	83.284	9.2117
2800.000000	83.210	7.5790
2850.000000	83.152	6.5388
2900.000000	83.186	6.2679
2950.000000	83.364	6.2803
3000.000000	83.677	5.7797
3040.000000	83.947	4.5685
3070.000000	84.109	3.1881
3110.000000	84.231	0.9916
3150.000000	84.236	-1.1907
3200.000000	84.111	-3.3156
3250.000000	83.914	-4.3878
3300.000000	83.741	-4.3712
3350.000000	83.674	-3.5488
3400.000000	83.765	-2.3907
3450.000000	84.014	-1.4186
3500.000000	84.381	-1.0669
3550.000000	84.806	-1.5913
3600.000000	85.229	-3.0922
3650.000000	85.596	-5.5439
3700.000000	85.861	-8.7646
3750.000000	85.998	-12.4452
3820.000000	85.972	-17.7347
3870.000000	85.816	-21.2687
3950.000000	85.375	-26.0806
4000.000000	85.006	-28.3887
4060.000000	84.504	-30.3425
4120.000000	83.978	-31.4322
4180.000000	83.461	-31.7777
4250.000000	82.893	-31.4193
4310.000000	82.449	-30.5802
4370.000000	82.053	-29.3517
4440.000000	81.654	-27.5364
4500.000000	81.366	-25.7167
4550.000000	81.163	-24.0389
4620.000000	80.939	-21.4665
4680.000000	80.810	-19.0860
4750.000000	80.739	-16.1789
4820.000000	80.761	-13.2367
4870.000000	80.836	-11.1766
4940.000000	81.023	-8.4409
5000.000000	81.256	-6.3150
5080.000000	81.666	-3.9441
5150.000000	82.105	-2.4641
5220.000000	82.594	-1.7060
5300.000000	83.172	-1.9108
5380.000000	83.710	-3.3715
5450.000000	84.097	-5.6371
5520.000000	84.367	-8.6442
5600.000000	84.498	-12.6135
5700.000000	84.381	-17.5491
5800.000000	83.993	-21.4504
5900.000000	83.448	-23.6946
6000.000000	82.886	-24.3860
6080.000000	82.484	-24.1767
6150.000000	82.179	-23.6460
6220.000000	81.918	-22.8953
6300.000000	81.674	-21.8556
6400.000000	81.449	-20.4161
6500.000000	81.312	-19.0037
6600.000000	81.252	-17.8501
6700.000000	81.239	-17.1647
6800.000000	81.228	-17.0481
6900.000000	81.161	-17.4067
7000.000000	80.993	-17.8641
7100.000000	80.727	-17.8715
7200.000000	80.420	-17.0355
7300.000000	80.157	-15.3116
7400.000000	80.023	-12.9517
7500.000000	80.076	-10.4053
7620.000000	80.403	-7.8892
7750.000000	80.997	-6.8466
7880.000000	81.663	-8.3485
8000.000000	82.179	-12.2062
8120.000000	82.475	-18.1609
8250.000000	82.449	-26.1478
8380.000000	82.015	-34.4294
8500.000000	81.278	-41.1732
8620.000000	80.301	-46.4389
8750.000000	79.113	-50.6898
8850.000000	78.187	-53.5660
9000.000000	76.794	-58.4514
9120.000000	75.558	-63.0127
9250.000000	73.919	-67.3412
9380.000000	71.852	-68.6970
9500.000000	69.538	-64.9457
9620.000000	66.871	-54.1657
9750.000000	63.721	-32.6038
9880.000000	60.936	-1.3820
10000.000000	60.315	31.5134
10150.000000	63.027	69.2111
10300.000000	67.023	97.2467
10440.000000	70.671	114.0002
10600.000000	74.364	122.3658
10750.000000	77.197	120.1891
10900.000000	79.345	110.1613
11060.000000	80.911	94.4026
11200.000000	81.778	79.1432
11380.000000	82.360	59.4242
11500.000000	82.438	46.4025
11720.000000	81.882	23.5682
11800.000000	81.456	15.9969
12060.000000	79.496	-5.7242
12200.000000	78.277	-17.5059
12410.000000	76.487	-40.7992
12500.000000	75.761	-54.3564
12650.000000	74.651	-82.8455
12800.000000	73.829	-117.7775
13150.000000	74.150	157.3646
13200.000000	74.388	146.9918
13400.000000	75.328	111.9688
13600.000000	75.993	85.8582
13800.000000	76.331	65.4696
14000.000000	76.361	47.7578
14300.000000	75.731	22.5818
14500.000000	74.769	6.2955
14750.000000	72.976	-14.2382
15000.000000	70.802	-41.2141
15250.000000	68.408	-84.3346
15500.000000	66.050	-145.0361
15750.000000	64.892	149.8208
16000.000000	64.887	97.9668
16250.000000	64.794	67.1929
16500.000000	64.841	54.5809
16750.000000	65.818	49.6897
17000.000000	67.302	41.9583
17250.000000	68.542	27.5864
17500.000000	69.219	7.7305
17750.000000	69.189	-14.5253
18000.000000	68.497	-35.0156
18250.000000	67.632	-51.7153
18500.000000	67.383	-67.8306
18750.000000	67.849	-89.5603
19000.000000	68.285	-120.2299
19250.000000	68.150	-157.5067
19500.000000	67.387	164.3411
19750.000000	66.276	132.0822
