* Measurement data measured by REW V5.20.13
* Source: EXCL: Headset (USB-C to 3.5mm Headphone Jack Adapter), MICROPHONE (Master Volume), 0, volume: 0.260
* Format: 256k Log Swept Sine, 1 sweep at -12.0 dBFS with no timing reference
* Dated: Dec 28, 2023 10:48:11 AM
* REW Settings:
*  C-weighting compensation: Off
*  Target level: 75.0 dB
* Note: Solid Leather Pads
* Measurement: Headamame V1 40mm BDNC
* Smoothing: 1/12 octave
* Frequency Step: 1/48 octave
* Start Frequency: 20.000 Hz
*
* Freq(Hz)	SPL(dB)	Phase(degrees)
20.000000	67.633	-154.6919
20.299999	67.963	-157.1109
20.600000	68.280	-159.6706
20.900000	68.579	-162.2794
21.200001	68.860	-164.8188
21.400000	69.038	-166.4116
21.799999	69.392	-169.2518
22.000000	69.574	-170.4800
22.400000	69.962	-172.5953
22.700001	70.276	-173.9813
23.000000	70.600	-175.3011
23.299999	70.920	-176.6361
23.600000	71.216	-178.0279
24.000000	71.543	-179.9399
24.299999	71.722	178.6897
24.700001	71.871	177.1663
25.000000	71.931	176.3922
25.400000	71.987	175.9171
25.799999	72.076	175.8643
26.200001	72.229	175.7158
26.500000	72.371	175.1903
26.900000	72.537	173.6721
27.200001	72.602	171.9498
27.600000	72.576	169.2694
28.000000	72.437	166.7175
28.500000	72.239	164.3502
29.000000	72.237	162.6210
29.500000	72.522	160.4555
30.000000	72.954	157.0918
30.400000	73.288	153.8029
30.700001	73.510	151.3991
31.100000	73.792	148.7713
31.500000	74.120	147.0913
32.000000	74.669	146.1533
32.500000	75.371	145.8523
33.000000	76.140	145.5484
33.500000	76.899	144.9919
34.000000	77.602	144.1079
34.500000	78.215	142.7900
35.000000	78.688	140.9816
35.500000	78.980	138.8657
36.000000	79.088	136.8867
36.500000	79.051	135.4935
37.000000	78.952	134.8383
37.500000	78.874	134.6899
38.200001	78.880	134.4669
38.700001	78.955	133.8142
39.500000	79.122	131.7342
40.000000	79.237	129.9813
40.599998	79.388	127.6687
41.200001	79.561	125.3103
41.799999	79.754	123.0466
42.500000	80.002	120.6385
43.099998	80.221	118.8004
43.700001	80.434	117.1527
44.400002	80.656	115.4362
45.000000	80.819	114.1094
45.500000	80.938	113.0667
46.200001	81.082	111.6110
46.799999	81.185	110.2837
47.500000	81.284	108.6097
48.200001	81.366	106.8573
48.700001	81.425	105.5939
49.400002	81.521	103.8188
50.000000	81.616	102.2935
50.799999	81.753	100.3137
51.500000	81.876	98.7165
52.200001	81.998	97.2955
53.000000	82.134	95.8883
53.799999	82.262	94.6689
54.500000	82.370	93.7032
55.200001	82.479	92.7663
56.000000	82.614	91.5936
57.000000	82.783	89.7560
58.000000	82.918	87.6007
59.000000	83.027	85.5199
60.000000	83.154	83.7396
60.799999	83.290	82.4691
61.500000	83.427	81.3478
62.200001	83.562	80.1657
63.000000	83.694	78.7857
64.000000	83.825	77.1351
65.000000	83.933	75.5894
66.000000	84.029	74.0833
67.000000	84.122	72.5645
68.000000	84.217	71.0103
69.000000	84.315	69.4263
70.000000	84.414	67.8229
71.000000	84.511	66.2308
72.000000	84.605	64.6686
73.000000	84.693	63.1365
74.000000	84.777	61.6469
75.000000	84.860	60.1678
76.199997	84.953	58.3862
77.500000	85.046	56.4489
78.800003	85.128	54.5285
80.000000	85.197	52.7841
81.199997	85.258	51.0725
82.500000	85.321	49.2734
83.800003	85.378	47.5188
85.000000	85.431	45.9506
86.199997	85.482	44.4028
87.500000	85.534	42.7509
88.500000	85.571	41.4955
90.000000	85.621	39.6271
91.199997	85.656	38.1531
92.500000	85.691	36.5782
93.800003	85.723	35.0290
95.000000	85.749	33.6436
96.199997	85.778	32.3058
97.500000	85.811	30.8846
98.800003	85.846	29.4648
100.000000	85.878	28.1354
101.500000	85.915	26.4164
103.000000	85.945	24.6340
104.400002	85.964	22.9600
106.000000	85.980	21.0640
107.500000	85.987	19.2950
109.000000	85.981	17.5380
110.599998	85.961	15.6774
112.000000	85.931	14.0680
113.800003	85.878	12.0881
115.000000	85.838	10.8594
117.199997	85.757	8.8056
118.000000	85.726	8.1078
120.599998	85.608	5.9109
122.000000	85.533	4.7668
124.099998	85.429	3.1281
125.000000	85.392	2.4413
126.500000	85.340	1.2990
128.000000	85.292	0.1583
131.500000	85.161	-2.4482
132.000000	85.138	-2.8069
134.000000	85.040	-4.1720
136.000000	84.939	-5.3954
138.000000	84.848	-6.4744
140.000000	84.770	-7.4354
143.000000	84.687	-8.7495
145.000000	84.654	-9.6215
147.500000	84.631	-10.7839
150.000000	84.618	-12.0607
152.500000	84.610	-13.4799
155.000000	84.598	-15.0439
157.500000	84.575	-16.7163
160.000000	84.539	-18.4427
162.500000	84.492	-20.1956
165.000000	84.433	-21.9717
167.500000	84.362	-23.7548
170.000000	84.279	-25.5154
172.500000	84.189	-27.2268
175.000000	84.088	-28.8945
177.500000	83.975	-30.5585
180.000000	83.846	-32.2390
182.500000	83.699	-33.8859
185.000000	83.537	-35.4019
187.500000	83.368	-36.7329
190.000000	83.204	-37.9219
192.500000	83.052	-39.0668
195.000000	82.908	-40.2394
197.500000	82.760	-41.4515
200.000000	82.598	-42.6720
203.000000	82.383	-44.0756
206.000000	82.150	-45.3298
209.000000	81.908	-46.3824
212.000000	81.670	-47.2325
214.000000	81.520	-47.7068
218.000000	81.251	-48.5331
220.000000	81.133	-48.9388
224.000000	80.918	-49.8436
227.000000	80.762	-50.6295
230.000000	80.598	-51.4783
233.000000	80.423	-52.3333
236.000000	80.241	-53.1458
240.000000	79.998	-54.1539
243.000000	79.819	-54.8929
247.000000	79.578	-55.9001
250.000000	79.389	-56.6605
254.000000	79.125	-57.6321
258.000000	78.845	-58.5094
262.000000	78.554	-59.2639
265.000000	78.332	-59.7437
269.000000	78.036	-60.2850
272.000000	77.814	-60.6385
276.000000	77.517	-61.0579
280.000000	77.214	-61.3950
285.000000	76.827	-61.6039
290.000000	76.445	-61.5342
295.000000	76.083	-61.2441
300.000000	75.741	-60.8157
304.000000	75.479	-60.4225
307.000000	75.290	-60.0981
311.000000	75.049	-59.6151
315.000000	74.821	-59.0771
320.000000	74.553	-58.3399
325.000000	74.306	-57.5446
330.000000	74.079	-56.7187
335.000000	73.875	-55.8981
340.000000	73.691	-55.1314
345.000000	73.521	-54.4596
350.000000	73.357	-53.8883
355.000000	73.192	-53.3859
360.000000	73.021	-52.8972
365.000000	72.844	-52.3843
370.000000	72.665	-51.8401
375.000000	72.487	-51.2620
382.000000	72.241	-50.3807
387.000000	72.070	-49.6967
395.000000	71.813	-48.5222
400.000000	71.667	-47.7715
406.000000	71.509	-46.9240
412.000000	71.361	-46.1923
418.000000	71.208	-45.5676
425.000000	71.004	-44.8591
431.000000	70.807	-44.1747
437.000000	70.597	-43.3721
444.000000	70.344	-42.2521
450.000000	70.132	-41.1376
455.000000	69.962	-40.1204
462.000000	69.741	-38.5801
468.000000	69.571	-37.1628
475.000000	69.401	-35.4352
482.000000	69.261	-33.7192
487.000000	69.174	-32.5605
494.000000	69.056	-31.0331
500.000000	68.953	-29.7537
508.000000	68.816	-28.0397
515.000000	68.696	-26.5416
522.000000	68.572	-25.0349
530.000000	68.424	-23.2644
538.000000	68.268	-21.4062
545.000000	68.127	-19.6445
552.000000	67.991	-17.7351
560.000000	67.843	-15.4064
570.000000	67.666	-12.2273
580.000000	67.514	-8.6279
590.000000	67.418	-4.6505
600.000000	67.386	-0.4861
608.000000	67.398	3.0067
615.000000	67.447	6.2832
622.000000	67.556	9.7341
630.000000	67.765	13.7415
640.000000	68.156	18.6060
650.000000	68.674	23.0033
660.000000	69.270	26.7126
670.000000	69.904	29.7859
680.000000	70.564	32.3848
690.000000	71.264	34.5656
700.000000	72.007	36.2146
710.000000	72.768	37.1603
720.000000	73.508	37.3353
730.000000	74.198	36.8307
740.000000	74.829	35.8218
750.000000	75.407	34.4551
762.000000	76.036	32.4072
775.000000	76.626	29.7232
788.000000	77.108	26.7155
800.000000	77.459	23.8578
812.000000	77.735	21.0720
825.000000	77.968	18.2111
838.000000	78.148	15.5522
850.000000	78.284	13.2678
862.000000	78.395	11.0902
875.000000	78.483	8.8174
885.000000	78.526	7.1572
900.000000	78.555	4.8957
912.000000	78.562	3.3123
925.000000	78.566	1.7719
938.000000	78.565	0.3452
950.000000	78.555	-0.8713
962.000000	78.538	-1.9502
975.000000	78.521	-2.9314
988.000000	78.519	-3.7407
1000.000000	78.542	-4.4112
1015.000000	78.602	-5.2915
1030.000000	78.682	-6.3430
1044.000000	78.758	-7.5040
1060.000000	78.832	-9.0160
1075.000000	78.882	-10.6003
1090.000000	78.902	-12.3223
1106.000000	78.879	-14.2230
1120.000000	78.817	-15.8325
1138.000000	78.688	-17.6708
1150.000000	78.583	-18.6956
1172.000000	78.386	-20.1815
1180.000000	78.318	-20.6307
1206.000000	78.117	-21.9283
1220.000000	78.015	-22.5747
1241.000000	77.860	-23.4935
1250.000000	77.791	-23.8612
1265.000000	77.674	-24.4244
1280.000000	77.553	-24.9177
1315.000000	77.272	-25.8093
1320.000000	77.232	-25.9097
1340.000000	77.074	-26.2528
1360.000000	76.919	-26.5126
1380.000000	76.764	-26.6863
1400.000000	76.610	-26.7554
1430.000000	76.386	-26.6400
1450.000000	76.247	-26.4249
1475.000000	76.091	-26.0233
1500.000000	75.957	-25.5056
1525.000000	75.850	-24.9226
1550.000000	75.771	-24.3389
1575.000000	75.714	-23.8180
1600.000000	75.672	-23.4100
1625.000000	75.632	-23.1321
1650.000000	75.582	-22.9443
1675.000000	75.513	-22.7598
1700.000000	75.431	-22.5058
1725.000000	75.343	-22.1608
1750.000000	75.254	-21.7139
1775.000000	75.169	-21.1489
1800.000000	75.096	-20.4901
1825.000000	75.039	-19.8354
1850.000000	74.980	-19.2480
1875.000000	74.904	-18.6288
1900.000000	74.817	-17.8374
1925.000000	74.737	-16.8353
1950.000000	74.677	-15.6572
1975.000000	74.648	-14.3684
2000.000000	74.651	-13.0654
2030.000000	74.685	-11.5912
2060.000000	74.734	-10.1949
2090.000000	74.801	-8.8252
2120.000000	74.890	-7.5763
2140.000000	74.950	-6.8746
2180.000000	75.020	-5.6733
2200.000000	75.019	-4.9952
2240.000000	74.974	-3.0206
2270.000000	74.955	-0.8329
2300.000000	74.998	1.9591
2330.000000	75.149	5.2738
2360.000000	75.456	8.9578
2400.000000	76.177	13.9991
2430.000000	76.971	17.3963
2470.000000	78.300	20.4672
2500.000000	79.385	20.9917
2540.000000	80.738	18.6774
2580.000000	81.780	13.1298
2620.000000	82.409	5.6970
2650.000000	82.624	-0.0505
2690.000000	82.657	-6.9456
2720.000000	82.555	-11.2745
2760.000000	82.328	-15.9283
2800.000000	82.054	-19.4542
2850.000000	81.721	-22.5599
2900.000000	81.484	-24.6832
2950.000000	81.402	-26.6088
3000.000000	81.439	-29.3628
3040.000000	81.444	-32.5945
3070.000000	81.366	-35.4865
3110.000000	81.111	-39.4473
3150.000000	80.695	-42.9434
3200.000000	80.023	-46.1997
3250.000000	79.268	-48.2150
3300.000000	78.487	-49.1674
3350.000000	77.712	-49.2612
3400.000000	76.953	-48.6732
3450.000000	76.199	-47.4695
3500.000000	75.425	-45.4823
3550.000000	74.617	-42.2355
3600.000000	73.834	-37.1527
3650.000000	73.259	-30.2050
3700.000000	73.111	-22.3304
3750.000000	73.439	-15.0726
3820.000000	74.330	-8.2259
3870.000000	74.959	-6.0409
3950.000000	75.628	-5.5715
4000.000000	75.811	-5.8312
4060.000000	75.853	-5.5776
4120.000000	75.809	-4.0616
4180.000000	75.837	-1.1154
4250.000000	76.168	3.5181
4310.000000	76.791	7.4756
4370.000000	77.664	10.2974
4440.000000	78.779	11.0276
4500.000000	79.619	9.1366
4550.000000	80.143	6.0874
4620.000000	80.544	0.6566
4680.000000	80.595	-3.9290
4750.000000	80.398	-8.0869
4820.000000	80.058	-10.4708
4870.000000	79.807	-11.1379
4940.000000	79.535	-11.0293
5000.000000	79.415	-10.4423
5080.000000	79.418	-9.6387
5150.000000	79.528	-9.3832
5220.000000	79.668	-9.8387
5300.000000	79.760	-11.1743
5380.000000	79.716	-12.7938
5450.000000	79.587	-13.9377
5520.000000	79.422	-14.7595
5600.000000	79.195	-15.4686
5700.000000	78.811	-15.7850
5800.000000	78.341	-14.7874
5900.000000	77.902	-12.2302
6000.000000	77.615	-8.3892
6080.000000	77.558	-4.7075
6150.000000	77.661	-1.2971
6220.000000	77.918	2.0582
6300.000000	78.394	5.5255
6400.000000	79.218	8.7833
6500.000000	80.200	10.2612
6600.000000	81.213	9.4894
6700.000000	82.116	6.2292
6800.000000	82.775	0.6982
6900.000000	83.100	-6.2578
7000.000000	83.074	-13.3868
7100.000000	82.754	-19.5881
7200.000000	82.242	-24.3181
7300.000000	81.639	-27.5549
7400.000000	81.033	-29.5758
7500.000000	80.481	-30.7874
7620.000000	79.933	-31.7940
7750.000000	79.464	-33.0795
7880.000000	79.047	-35.1234
8000.000000	78.604	-37.7450
8120.000000	78.023	-40.6467
8250.000000	77.216	-43.4122
8380.000000	76.300	-45.5558
8500.000000	75.461	-47.7762
8620.000000	74.658	-51.9018
8750.000000	73.667	-60.6887
8850.000000	72.617	-71.6982
9000.000000	70.290	-97.9664
9120.000000	67.805	-131.2234
9250.000000	65.298	-178.7944
9380.000000	64.915	135.5779
9500.000000	66.450	107.2535
9620.000000	68.327	92.1079
9750.000000	70.134	84.5938
9880.000000	71.700	81.4620
10000.000000	73.028	80.1840
10150.000000	74.593	78.8734
10300.000000	75.990	76.3682
10440.000000	77.039	72.4957
10600.000000	77.908	67.0878
10750.000000	78.500	62.1840
10900.000000	79.007	57.7308
11060.000000	79.499	52.8791
11200.000000	79.829	48.0984
11380.000000	80.005	41.5666
11500.000000	79.964	37.6642
11720.000000	79.822	32.7413
11800.000000	79.859	31.4905
12060.000000	80.474	25.4431
12200.000000	80.821	18.9565
12410.000000	80.728	6.6681
12500.000000	80.409	2.4274
12650.000000	79.707	-0.7154
12800.000000	79.353	0.1998
13150.000000	80.484	-11.8700
13200.000000	80.586	-16.6880
13400.000000	80.458	-40.5588
13600.000000	79.663	-67.8462
13800.000000	78.760	-97.1647
14000.000000	78.541	-129.8652
14300.000000	79.889	172.3145
14500.000000	80.888	129.6805
14750.000000	81.283	77.9476
15000.000000	80.485	34.8378
15250.000000	78.502	7.0507
15500.000000	75.575	-1.7366
15750.000000	72.648	0.7094
16000.000000	71.042	2.9718
16250.000000	70.949	1.6614
16500.000000	71.673	-4.3317
16750.000000	72.509	-16.3589
17000.000000	72.995	-34.5364
17250.000000	72.801	-56.8378
17500.000000	71.712	-78.4259
17750.000000	69.777	-94.3699
18000.000000	67.339	-103.8467
18250.000000	64.939	-109.5122
18500.000000	63.236	-114.6155
18750.000000	62.746	-122.6608
19000.000000	63.213	-137.2273
19250.000000	63.887	-159.5206
19500.000000	64.329	173.2383
19750.000000	64.487	147.3331
