* Measurement data measured by REW V5.20.13
* Source: EXCL: Headset (USB-C to 3.5mm Headphone Jack Adapter), MICROPHONE (Master Volume), 0, volume: 0.260. Timing signal peak level -56.1 dBFS, measurement signal peak level -32.7 dBFS
* Format: 256k Log Swept Sine, 1 sweep at -20.0 dBFS using an acoustic timing reference
* Dated: May 29, 2023 5:11:21 PM
* REW Settings:
*  C-weighting compensation: Off
*  Target level: 75.0 dB
* Note: Koss KTXPRO1 Stock Pads
* Measurement: Koss KTXPRO1
* Smoothing: 1/12 octave
* Frequency Step: 1/48 octave
* Start Frequency: 20.000 Hz
*
* Freq(Hz)	SPL(dB)	Phase(degrees)
20.000000	54.520	16.9689
20.299999	55.175	15.7130
20.600000	55.682	13.6470
20.900000	56.006	11.2195
21.200001	56.146	9.1119
21.400000	56.168	8.2946
21.799999	56.180	8.3902
22.000000	56.256	9.2404
22.400000	56.711	11.7386
22.700001	57.308	13.1559
23.000000	57.986	13.1844
23.299999	58.598	11.5796
23.600000	59.062	8.6453
24.000000	59.390	3.6668
24.299999	59.436	0.0845
24.700001	59.315	-3.5763
25.000000	59.178	-5.2611
25.400000	59.044	-6.3215
25.799999	59.030	-6.6229
26.200001	59.126	-6.6196
26.500000	59.255	-6.4766
26.900000	59.506	-6.0773
27.200001	59.766	-5.7043
27.600000	60.200	-5.4032
28.000000	60.664	-5.7161
28.500000	61.134	-7.0303
29.000000	61.380	-8.3793
29.500000	61.471	-8.3747
30.000000	61.643	-6.4493
30.400000	61.989	-4.1118
30.700001	62.383	-2.4419
31.100000	63.015	-1.0005
31.500000	63.665	-0.8315
32.000000	64.372	-2.4188
32.500000	64.879	-5.4575
33.000000	65.167	-9.1313
33.500000	65.258	-12.7441
34.000000	65.196	-15.7344
34.500000	65.049	-17.7101
35.000000	64.904	-18.4944
35.500000	64.875	-18.2653
36.000000	65.037	-17.6636
36.500000	65.347	-17.4938
37.000000	65.673	-18.1581
37.500000	65.914	-19.2820
38.200001	66.151	-20.2882
38.700001	66.374	-20.4129
39.500000	66.863	-21.2990
40.000000	67.107	-22.8047
40.599998	67.250	-24.9382
41.200001	67.309	-26.6264
41.799999	67.398	-27.9199
42.500000	67.577	-29.5006
43.099998	67.771	-31.0363
43.700001	67.999	-32.6028
44.400002	68.316	-34.3173
45.000000	68.646	-35.5940
45.500000	68.967	-36.6570
46.200001	69.397	-38.5675
46.799999	69.617	-40.4191
47.500000	69.673	-41.3997
48.200001	69.756	-40.2670
48.700001	69.968	-38.9150
49.400002	70.404	-38.0337
50.000000	70.713	-38.7695
50.799999	70.870	-40.7867
51.500000	70.836	-42.0583
52.200001	70.839	-42.3359
53.000000	71.072	-42.4509
53.799999	71.447	-43.7899
54.500000	71.712	-45.8216
55.200001	71.904	-47.6274
56.000000	72.145	-48.8566
57.000000	72.552	-49.7566
58.000000	72.987	-50.7511
59.000000	73.342	-52.1359
60.000000	73.572	-53.7303
60.799999	73.699	-55.0182
61.500000	73.793	-56.1963
62.200001	73.879	-57.4343
63.000000	73.983	-58.8459
64.000000	74.157	-60.5042
65.000000	74.396	-62.0956
66.000000	74.674	-63.7047
67.000000	74.948	-65.3281
68.000000	75.186	-66.9219
69.000000	75.380	-68.4250
70.000000	75.545	-69.8365
71.000000	75.698	-71.2350
72.000000	75.852	-72.7064
73.000000	76.006	-74.2820
74.000000	76.154	-75.9182
75.000000	76.293	-77.5216
76.199997	76.451	-79.2886
77.500000	76.627	-81.0446
78.800003	76.806	-82.7928
80.000000	76.966	-84.4752
81.199997	77.113	-86.1697
82.500000	77.271	-87.9315
83.800003	77.428	-89.6854
85.000000	77.551	-91.2860
86.199997	77.650	-92.7560
87.500000	77.749	-94.1593
88.500000	77.828	-95.1613
90.000000	77.949	-96.6627
91.199997	78.042	-97.8709
92.500000	78.142	-99.1773
93.800003	78.242	-100.5338
95.000000	78.331	-101.8422
96.199997	78.418	-103.1743
97.500000	78.518	-104.6359
98.800003	78.621	-106.1267
100.000000	78.712	-107.5143
101.500000	78.814	-109.2228
103.000000	78.899	-110.8943
104.400002	78.963	-112.4401
106.000000	79.024	-114.1979
107.500000	79.079	-115.8224
109.000000	79.135	-117.3989
110.599998	79.191	-118.9713
112.000000	79.230	-120.2106
113.800003	79.256	-121.6473
115.000000	79.253	-122.5328
117.199997	79.234	-124.0585
118.000000	79.236	-124.6294
120.599998	79.312	-126.9767
122.000000	79.359	-128.5545
124.099998	79.393	-130.8143
125.000000	79.398	-131.6517
126.500000	79.398	-132.8865
128.000000	79.390	-134.0012
131.500000	79.372	-136.5645
132.000000	79.369	-136.9431
134.000000	79.354	-138.4297
136.000000	79.329	-139.7662
138.000000	79.303	-140.9734
140.000000	79.277	-142.1711
143.000000	79.235	-143.9865
145.000000	79.206	-145.1523
147.500000	79.171	-146.5089
150.000000	79.136	-147.7592
152.500000	79.100	-148.9589
155.000000	79.060	-150.1486
157.500000	79.014	-151.3134
160.000000	78.969	-152.4225
162.500000	78.926	-153.4728
165.000000	78.880	-154.4626
167.500000	78.829	-155.4160
170.000000	78.777	-156.3516
172.500000	78.727	-157.2484
175.000000	78.682	-158.1002
177.500000	78.640	-158.9299
180.000000	78.595	-159.7745
182.500000	78.549	-160.6478
185.000000	78.504	-161.5259
187.500000	78.460	-162.3629
190.000000	78.418	-163.1361
192.500000	78.378	-163.8805
195.000000	78.338	-164.6379
197.500000	78.296	-165.4078
200.000000	78.253	-166.1738
203.000000	78.194	-167.0931
206.000000	78.120	-168.0458
209.000000	78.027	-169.0210
212.000000	77.916	-169.9442
214.000000	77.834	-170.4896
218.000000	77.651	-171.3314
220.000000	77.557	-171.6066
224.000000	77.379	-171.8799
227.000000	77.272	-171.9291
230.000000	77.191	-171.9455
233.000000	77.133	-171.9927
236.000000	77.089	-172.1041
240.000000	77.050	-172.3257
243.000000	77.033	-172.5095
247.000000	77.014	-172.8168
250.000000	76.996	-173.1041
254.000000	76.964	-173.4794
258.000000	76.922	-173.8001
262.000000	76.874	-174.1280
265.000000	76.836	-174.4099
269.000000	76.786	-174.8074
272.000000	76.751	-175.0914
276.000000	76.703	-175.4504
280.000000	76.655	-175.8051
285.000000	76.593	-176.2289
290.000000	76.526	-176.6187
295.000000	76.461	-176.9801
300.000000	76.402	-177.2867
304.000000	76.350	-177.4921
307.000000	76.309	-177.6290
311.000000	76.253	-177.7864
315.000000	76.203	-177.9109
320.000000	76.147	-178.0417
325.000000	76.098	-178.1743
330.000000	76.055	-178.3030
335.000000	76.015	-178.4219
340.000000	75.976	-178.5312
345.000000	75.937	-178.6379
350.000000	75.903	-178.7571
355.000000	75.869	-178.9016
360.000000	75.833	-179.0593
365.000000	75.794	-179.1940
370.000000	75.757	-179.2869
375.000000	75.721	-179.3511
382.000000	75.677	-179.4227
387.000000	75.650	-179.4624
395.000000	75.608	-179.5107
400.000000	75.583	-179.5577
406.000000	75.553	-179.6301
412.000000	75.523	-179.6881
418.000000	75.497	-179.7179
425.000000	75.468	-179.7341
431.000000	75.444	-179.7375
437.000000	75.418	-179.7313
444.000000	75.384	-179.7148
450.000000	75.358	-179.6938
455.000000	75.339	-179.6772
462.000000	75.315	-179.6603
468.000000	75.299	-179.6411
475.000000	75.281	-179.6025
482.000000	75.266	-179.5576
487.000000	75.257	-179.5271
494.000000	75.247	-179.4872
500.000000	75.240	-179.4573
508.000000	75.231	-179.4232
515.000000	75.225	-179.3977
522.000000	75.220	-179.3732
530.000000	75.214	-179.3456
538.000000	75.206	-179.3218
545.000000	75.200	-179.2932
552.000000	75.194	-179.2473
560.000000	75.191	-179.1816
570.000000	75.191	-179.1033
580.000000	75.190	-179.0344
590.000000	75.187	-178.9806
600.000000	75.187	-178.9484
608.000000	75.190	-178.9240
615.000000	75.194	-178.8921
622.000000	75.197	-178.8513
630.000000	75.201	-178.8058
640.000000	75.206	-178.7594
650.000000	75.211	-178.7102
660.000000	75.219	-178.6450
670.000000	75.229	-178.5652
680.000000	75.241	-178.4843
690.000000	75.254	-178.4144
700.000000	75.268	-178.3545
710.000000	75.286	-178.3021
720.000000	75.308	-178.2508
730.000000	75.330	-178.2002
740.000000	75.353	-178.1611
750.000000	75.374	-178.1346
762.000000	75.397	-178.1118
775.000000	75.418	-178.0957
788.000000	75.437	-178.0729
800.000000	75.454	-178.0268
812.000000	75.475	-177.9568
825.000000	75.502	-177.8703
838.000000	75.532	-177.7886
850.000000	75.562	-177.7246
862.000000	75.593	-177.6643
875.000000	75.628	-177.5859
885.000000	75.656	-177.5162
900.000000	75.698	-177.4111
912.000000	75.733	-177.3362
925.000000	75.773	-177.2631
938.000000	75.814	-177.1940
950.000000	75.854	-177.1311
962.000000	75.896	-177.0685
975.000000	75.943	-177.0045
988.000000	75.992	-176.9508
1000.000000	76.037	-176.9116
1015.000000	76.095	-176.8709
1030.000000	76.152	-176.8312
1044.000000	76.205	-176.7891
1060.000000	76.265	-176.7293
1075.000000	76.322	-176.6560
1090.000000	76.381	-176.5663
1106.000000	76.449	-176.4564
1120.000000	76.515	-176.3550
1138.000000	76.607	-176.2249
1150.000000	76.672	-176.1420
1172.000000	76.796	-176.0234
1180.000000	76.841	-175.9946
1206.000000	76.992	-175.9362
1220.000000	77.075	-175.9149
1241.000000	77.207	-175.8911
1250.000000	77.266	-175.8851
1265.000000	77.367	-175.8842
1280.000000	77.470	-175.8993
1315.000000	77.720	-176.0081
1320.000000	77.758	-176.0337
1340.000000	77.912	-176.1650
1360.000000	78.069	-176.3425
1380.000000	78.227	-176.5717
1400.000000	78.382	-176.8582
1430.000000	78.604	-177.3776
1450.000000	78.747	-177.7553
1475.000000	78.917	-178.2122
1500.000000	79.086	-178.5936
1525.000000	79.265	-178.8853
1550.000000	79.464	-179.1517
1575.000000	79.683	-179.4265
1600.000000	79.931	-179.7428
1625.000000	80.206	179.7733
1650.000000	80.489	179.0225
1675.000000	80.761	178.0477
1700.000000	81.018	176.9459
1725.000000	81.263	175.8010
1750.000000	81.509	174.6482
1775.000000	81.766	173.4333
1800.000000	82.031	172.0737
1825.000000	82.296	170.5358
1850.000000	82.553	168.8030
1875.000000	82.795	166.8636
1900.000000	83.012	164.7562
1925.000000	83.201	162.5562
1950.000000	83.368	160.3248
1975.000000	83.521	158.0587
2000.000000	83.657	155.7065
2030.000000	83.786	152.7736
2060.000000	83.872	149.8080
2090.000000	83.921	146.8452
2120.000000	83.926	143.9460
2140.000000	83.909	142.1260
2180.000000	83.863	138.7963
2200.000000	83.844	137.2048
2240.000000	83.801	133.9414
2270.000000	83.737	131.4423
2300.000000	83.638	129.0452
2330.000000	83.516	126.8197
2360.000000	83.384	124.7480
2400.000000	83.188	122.1534
2430.000000	83.015	120.4138
2470.000000	82.775	118.5743
2500.000000	82.621	117.4913
2540.000000	82.465	116.1327
2580.000000	82.337	114.6976
2620.000000	82.213	113.1942
2650.000000	82.111	112.0548
2690.000000	81.954	110.6310
2720.000000	81.822	109.7416
2760.000000	81.652	108.9062
2800.000000	81.524	108.3706
2850.000000	81.434	107.8017
2900.000000	81.404	107.1935
2950.000000	81.425	106.4677
3000.000000	81.482	105.5408
3040.000000	81.539	104.6534
3070.000000	81.583	103.9230
3110.000000	81.640	102.9274
3150.000000	81.707	101.9885
3200.000000	81.837	100.8710
3250.000000	82.035	99.5381
3300.000000	82.263	97.7253
3350.000000	82.483	95.5284
3400.000000	82.709	93.1789
3450.000000	82.978	90.5724
3500.000000	83.288	87.3751
3550.000000	83.595	83.3099
3600.000000	83.841	78.3052
3650.000000	83.980	72.5010
3700.000000	83.987	66.1383
3750.000000	83.847	59.4694
3820.000000	83.394	50.0806
3870.000000	82.889	43.6544
3950.000000	81.777	34.3626
4000.000000	80.877	29.6159
4060.000000	79.575	25.8449
4120.000000	78.078	24.9920
4180.000000	76.513	27.4127
4250.000000	74.861	34.0498
4310.000000	73.896	42.1773
4370.000000	73.636	51.1705
4440.000000	74.241	60.0884
4500.000000	75.133	64.4153
4550.000000	75.849	65.4105
4620.000000	76.607	64.0117
4680.000000	77.022	61.7063
4750.000000	77.323	59.0377
4820.000000	77.539	57.0211
4870.000000	77.713	56.1031
4940.000000	78.097	55.3954
5000.000000	78.627	54.8224
5080.000000	79.584	52.6797
5150.000000	80.448	48.2782
5220.000000	81.110	41.3509
5300.000000	81.486	31.6285
5380.000000	81.481	21.8218
5450.000000	81.255	14.1583
5520.000000	80.924	7.6100
5600.000000	80.534	1.2075
5700.000000	80.135	-6.2089
5800.000000	79.820	-14.2166
5900.000000	79.446	-23.5056
6000.000000	78.837	-33.7651
6080.000000	78.089	-41.8215
6150.000000	77.222	-47.9782
6220.000000	76.170	-52.6920
6300.000000	74.799	-55.8700
6400.000000	72.986	-56.5112
6500.000000	71.265	-53.9569
6600.000000	69.861	-48.9486
6700.000000	69.022	-42.8071
6800.000000	68.850	-37.5197
6900.000000	69.109	-34.7747
7000.000000	69.428	-35.0504
7100.000000	69.542	-37.5103
7200.000000	69.340	-40.4611
7300.000000	68.864	-42.1039
7400.000000	68.295	-41.3854
7500.000000	67.919	-38.4979
7620.000000	68.049	-33.9626
7750.000000	68.893	-30.6846
7880.000000	70.050	-31.3657
8000.000000	71.009	-36.2770
8120.000000	71.574	-44.8002
8250.000000	71.554	-55.6490
8380.000000	70.887	-64.5147
8500.000000	69.914	-68.6410
8620.000000	68.984	-68.9909
8750.000000	68.444	-67.4967
8850.000000	68.400	-66.7136
9000.000000	68.651	-67.3035
9120.000000	68.941	-68.9957
9250.000000	69.323	-71.5009
9380.000000	69.822	-74.7251
9500.000000	70.374	-78.8026
9620.000000	70.941	-84.2833
9750.000000	71.503	-91.7134
9880.000000	72.007	-100.3844
10000.000000	72.439	-109.4230
10150.000000	72.922	-122.3275
10300.000000	73.307	-137.1042
10440.000000	73.580	-152.5898
10600.000000	73.778	-172.6536
10750.000000	73.763	166.0754
10900.000000	73.474	143.0468
11060.000000	72.884	117.6155
11200.000000	72.218	95.1134
11380.000000	71.288	65.9564
11500.000000	70.663	46.4821
11720.000000	69.549	11.7197
11800.000000	69.180	-0.2489
12060.000000	68.412	-35.6586
12200.000000	68.455	-52.8617
12410.000000	69.160	-77.8760
12500.000000	69.623	-88.7733
12650.000000	70.470	-107.6315
12800.000000	71.283	-127.5713
13150.000000	72.554	-177.1423
13200.000000	72.648	175.6621
13400.000000	72.813	147.0822
13600.000000	72.632	119.1283
13800.000000	72.080	92.3391
14000.000000	71.149	67.5294
14300.000000	69.107	35.9156
14500.000000	67.429	19.3535
14750.000000	65.264	2.8463
15000.000000	63.327	-11.4398
15250.000000	61.615	-24.5564
15500.000000	60.085	-35.8346
15750.000000	59.057	-47.1206
16000.000000	58.577	-62.0903
16250.000000	58.174	-81.9553
16500.000000	57.529	-105.5460
16750.000000	56.706	-132.7722
17000.000000	55.819	-165.8690
17250.000000	54.726	153.3260
17500.000000	53.168	106.2141
17750.000000	51.098	56.7321
18000.000000	48.910	7.5834
18250.000000	47.336	-42.1798
18500.000000	46.597	-95.6931
18750.000000	46.061	-156.3230
19000.000000	45.142	132.5754
19250.000000	43.859	49.6650
19500.000000	42.918	-38.0386
19750.000000	42.915	-112.8855
