* Measurement data measured by REW V5.31.1
* Source: EXCL: Headset (USB-C to 3.5mm Headphone Jack Adapter), MICROPHONE (Master Volume), 0, volume: 0.410. Timing signal peak level -36.0 dBFS, measurement signal peak level -32.6 dBFS
* Format: 256k Log Swept Sine, 1 sweep at -12.0 dBFS using an acoustic timing reference
* Dated: Oct 29, 2024 8:21:26 PM
* REW Settings:
*  C-weighting compensation: Off
*  Target level: 75.0 dB
* Note: Delay -0.0294 ms (-10 mm, -0.4 in) using estimated IR delay relative to Acoustic reference played from HEADPHONE R with no timing offset Clock adjustment: -56.8 ppm
* Measurement: R Ploopy DSP
* Smoothing: 1/12 octave
* Frequency Step: 1/48 octave
* Start Frequency: 20.000 Hz
*
* Freq(Hz)	SPL(dB)	Phase(degrees)
20.000000	69.158	-94.6054
20.299999	69.334	-96.2742
20.600000	69.446	-97.9168
20.900000	69.518	-99.3682
21.200001	69.576	-100.5856
21.400000	69.618	-101.2932
21.799999	69.717	-102.5884
22.000000	69.772	-103.2238
22.400000	69.875	-104.5069
22.700001	69.941	-105.4469
23.000000	69.998	-106.3226
23.299999	70.055	-107.1190
23.600000	70.117	-107.8586
24.000000	70.213	-108.8392
24.299999	70.287	-109.6179
24.700001	70.375	-110.7133
25.000000	70.428	-111.5338
25.400000	70.483	-112.5510
25.799999	70.536	-113.4500
26.200001	70.597	-114.2715
26.500000	70.649	-114.8806
26.900000	70.722	-115.7191
27.200001	70.773	-116.3667
27.600000	70.836	-117.2327
28.000000	70.893	-118.0853
28.500000	70.959	-119.1440
29.000000	71.014	-120.2158
29.500000	71.046	-121.2612
30.000000	71.055	-122.1853
30.400000	71.054	-122.7874
30.700001	71.053	-123.1542
31.100000	71.057	-123.5460
31.500000	71.073	-123.8555
32.000000	71.110	-124.1822
32.500000	71.168	-124.5103
33.000000	71.240	-124.8978
33.500000	71.314	-125.3456
34.000000	71.384	-125.7886
34.500000	71.458	-126.1554
35.000000	71.552	-126.4415
35.500000	71.676	-126.7141
36.000000	71.829	-127.0508
36.500000	72.011	-127.5054
37.000000	72.221	-128.1465
37.500000	72.456	-129.0920
38.200001	72.779	-131.1262
38.700001	72.962	-133.0589
39.500000	73.115	-136.5490
40.000000	73.130	-138.7174
40.599998	73.088	-141.1566
41.200001	72.995	-143.3650
41.799999	72.863	-145.2823
42.500000	72.684	-147.0661
43.099998	72.538	-148.2049
43.700001	72.420	-149.0838
44.400002	72.320	-149.9584
45.000000	72.250	-150.6316
45.500000	72.198	-151.0955
46.200001	72.152	-151.5970
46.799999	72.140	-152.0561
47.500000	72.116	-152.7765
48.200001	72.035	-153.4515
48.700001	71.953	-153.6969
49.400002	71.850	-153.7025
50.000000	71.791	-153.5970
50.799999	71.732	-153.5352
51.500000	71.679	-153.5524
52.200001	71.620	-153.5799
53.000000	71.548	-153.5143
53.799999	71.497	-153.2684
54.500000	71.494	-153.0081
55.200001	71.526	-152.8696
56.000000	71.582	-152.9753
57.000000	71.630	-153.4200
58.000000	71.636	-153.7966
59.000000	71.659	-154.0081
60.000000	71.699	-154.4252
60.799999	71.711	-154.9059
61.500000	71.705	-155.3116
62.200001	71.693	-155.6626
63.000000	71.679	-155.9990
64.000000	71.671	-156.3343
65.000000	71.675	-156.6034
66.000000	71.690	-156.8158
67.000000	71.716	-156.9707
68.000000	71.750	-157.1284
69.000000	71.780	-157.2919
70.000000	71.807	-157.3853
71.000000	71.846	-157.4489
72.000000	71.896	-157.5831
73.000000	71.948	-157.7913
74.000000	72.008	-158.0659
75.000000	72.077	-158.4879
76.199997	72.145	-159.1556
77.500000	72.216	-159.8106
78.800003	72.320	-160.4387
80.000000	72.444	-161.1367
81.199997	72.581	-162.0489
82.500000	72.716	-163.3867
83.800003	72.795	-165.0904
85.000000	72.793	-166.8727
86.199997	72.711	-168.6682
87.500000	72.539	-170.4233
88.500000	72.361	-171.4703
90.000000	72.069	-172.2942
91.199997	71.862	-172.3322
92.500000	71.700	-171.9453
93.800003	71.605	-171.4187
95.000000	71.561	-170.9573
96.199997	71.552	-170.5739
97.500000	71.577	-170.3604
98.800003	71.617	-170.3910
100.000000	71.653	-170.5775
101.500000	71.684	-170.9065
103.000000	71.700	-171.2673
104.400002	71.701	-171.6673
106.000000	71.684	-172.2280
107.500000	71.649	-172.8171
109.000000	71.597	-173.2943
110.599998	71.539	-173.4792
112.000000	71.499	-173.4013
113.800003	71.448	-173.3213
115.000000	71.388	-173.4691
117.199997	71.185	-174.0797
118.000000	71.091	-174.2590
120.599998	70.886	-174.0394
122.000000	70.905	-173.6828
124.099998	71.048	-173.2559
125.000000	71.132	-173.1329
126.500000	71.290	-173.1046
128.000000	71.459	-173.4331
131.500000	71.746	-176.2370
132.000000	71.750	-176.8652
134.000000	71.607	-179.5907
136.000000	71.209	178.2123
138.000000	70.693	177.4614
140.000000	70.243	178.2014
143.000000	69.886	-179.2799
145.000000	69.817	-177.7158
147.500000	69.802	-176.3585
150.000000	69.806	-175.3926
152.500000	69.821	-174.5626
155.000000	69.838	-173.8551
157.500000	69.852	-173.2723
160.000000	69.873	-172.7997
162.500000	69.903	-172.4790
165.000000	69.928	-172.2818
167.500000	69.939	-172.1226
170.000000	69.942	-171.9086
172.500000	69.950	-171.6404
175.000000	69.964	-171.4233
177.500000	69.964	-171.3200
180.000000	69.947	-171.2811
182.500000	69.927	-171.2597
185.000000	69.915	-171.2016
187.500000	69.910	-171.0650
190.000000	69.908	-170.8872
192.500000	69.898	-170.7441
195.000000	69.875	-170.6466
197.500000	69.842	-170.5517
200.000000	69.806	-170.3916
203.000000	69.770	-170.1058
206.000000	69.748	-169.7634
209.000000	69.742	-169.3939
212.000000	69.749	-168.9856
214.000000	69.756	-168.7036
218.000000	69.751	-168.1503
220.000000	69.740	-167.8517
224.000000	69.724	-167.2359
227.000000	69.718	-166.7755
230.000000	69.711	-166.2642
233.000000	69.706	-165.6231
236.000000	69.707	-164.8103
240.000000	69.712	-163.7283
243.000000	69.718	-163.1500
247.000000	69.743	-162.4300
250.000000	69.785	-161.7472
254.000000	69.865	-160.7007
258.000000	69.969	-159.5897
262.000000	70.099	-158.4570
265.000000	70.217	-157.6053
269.000000	70.411	-156.4683
272.000000	70.591	-155.6326
276.000000	70.894	-154.6503
280.000000	71.271	-154.0114
285.000000	71.817	-154.0825
290.000000	72.368	-155.4922
295.000000	72.806	-158.1887
300.000000	73.034	-161.6174
304.000000	73.054	-164.3061
307.000000	72.995	-166.0177
311.000000	72.861	-167.7626
315.000000	72.713	-168.9325
320.000000	72.558	-169.7911
325.000000	72.448	-170.2063
330.000000	72.379	-170.3496
335.000000	72.354	-170.3129
340.000000	72.386	-170.1739
345.000000	72.487	-170.0467
350.000000	72.663	-170.1242
355.000000	72.913	-170.6420
360.000000	73.214	-171.8004
365.000000	73.530	-173.7418
370.000000	73.824	-176.5585
375.000000	74.058	179.7159
382.000000	74.206	173.0602
387.000000	74.120	167.4331
395.000000	73.502	157.6572
400.000000	72.740	151.8594
406.000000	71.409	146.6333
412.000000	69.706	145.2124
418.000000	67.909	149.3442
425.000000	66.310	159.9829
431.000000	65.665	169.5385
437.000000	65.484	176.9146
444.000000	65.501	-176.3163
450.000000	65.650	-170.8795
455.000000	65.907	-166.5249
462.000000	66.471	-161.5433
468.000000	67.047	-158.9225
475.000000	67.689	-157.6429
482.000000	68.232	-157.5812
487.000000	68.557	-157.9571
494.000000	68.941	-158.8623
500.000000	69.217	-159.9441
508.000000	69.516	-161.8494
515.000000	69.697	-163.9739
522.000000	69.777	-166.4804
530.000000	69.711	-169.6075
538.000000	69.461	-172.5934
545.000000	69.102	-174.7124
552.000000	68.643	-176.1049
560.000000	68.057	-176.6859
570.000000	67.326	-176.1845
580.000000	66.637	-174.8943
590.000000	65.960	-173.1861
600.000000	65.247	-171.1799
608.000000	64.609	-169.3203
615.000000	63.963	-167.3280
622.000000	63.209	-164.5058
630.000000	62.258	-158.6824
640.000000	61.499	-140.8980
650.000000	62.531	-107.4206
660.000000	65.184	-85.0027
670.000000	67.972	-80.0790
680.000000	70.263	-83.0195
690.000000	72.001	-89.0576
700.000000	73.301	-96.0402
710.000000	74.295	-103.2399
720.000000	75.009	-110.7482
730.000000	75.383	-118.3607
740.000000	75.412	-125.2701
750.000000	75.200	-130.7427
762.000000	74.830	-135.1820
775.000000	74.485	-137.9787
788.000000	74.275	-139.7145
800.000000	74.168	-141.0184
812.000000	74.098	-142.2532
825.000000	74.031	-143.5393
838.000000	73.959	-144.7549
850.000000	73.882	-145.7617
862.000000	73.805	-146.6565
875.000000	73.719	-147.5820
885.000000	73.641	-148.2847
900.000000	73.486	-149.1996
912.000000	73.338	-149.6849
925.000000	73.171	-149.9291
938.000000	73.005	-149.9226
950.000000	72.856	-149.6998
962.000000	72.714	-149.2429
975.000000	72.579	-148.4773
988.000000	72.479	-147.4702
1000.000000	72.426	-146.3787
1015.000000	72.423	-144.8880
1030.000000	72.496	-143.4623
1044.000000	72.611	-142.4434
1060.000000	72.742	-141.6823
1075.000000	72.830	-140.9748
1090.000000	72.938	-139.7717
1106.000000	73.202	-138.0555
1120.000000	73.604	-137.0350
1138.000000	74.234	-137.5538
1150.000000	74.616	-139.1561
1172.000000	75.070	-143.9414
1180.000000	75.138	-146.0184
1206.000000	74.985	-153.0675
1220.000000	74.651	-156.5923
1241.000000	73.816	-160.4475
1250.000000	73.358	-161.1938
1265.000000	72.537	-160.7707
1280.000000	71.769	-158.0547
1315.000000	70.987	-146.9383
1320.000000	71.000	-145.5528
1340.000000	71.193	-141.4178
1360.000000	71.439	-139.0040
1380.000000	71.648	-137.5245
1400.000000	71.786	-136.5817
1430.000000	71.830	-135.0963
1450.000000	71.831	-133.4831
1475.000000	71.897	-131.1077
1500.000000	72.020	-128.7465
1525.000000	72.194	-126.2206
1550.000000	72.468	-123.7642
1575.000000	72.788	-121.9215
1600.000000	73.106	-120.2723
1625.000000	73.477	-118.6505
1650.000000	73.910	-117.5510
1675.000000	74.334	-117.2492
1700.000000	74.692	-117.3789
1725.000000	75.019	-117.5222
1750.000000	75.338	-118.0025
1775.000000	75.584	-118.8413
1800.000000	75.757	-119.6249
1825.000000	75.880	-120.2651
1850.000000	75.957	-120.6334
1875.000000	76.022	-120.4711
1900.000000	76.144	-119.7954
1925.000000	76.363	-119.0757
1950.000000	76.652	-118.7851
1975.000000	76.957	-119.0985
2000.000000	77.224	-119.9917
2030.000000	77.442	-121.4406
2060.000000	77.567	-122.7570
2090.000000	77.662	-123.8425
2120.000000	77.729	-124.9274
2140.000000	77.750	-125.6028
2180.000000	77.742	-126.8416
2200.000000	77.700	-127.3620
2240.000000	77.555	-127.8313
2270.000000	77.407	-127.6130
2300.000000	77.245	-126.4285
2330.000000	77.193	-124.1266
2360.000000	77.336	-121.5367
2400.000000	77.769	-118.9556
2430.000000	78.157	-118.1464
2470.000000	78.620	-118.0046
2500.000000	78.934	-118.1220
2540.000000	79.355	-118.4504
2580.000000	79.789	-119.2781
2620.000000	80.161	-120.8738
2650.000000	80.349	-122.3163
2690.000000	80.481	-123.9858
2720.000000	80.537	-124.6688
2760.000000	80.678	-124.8167
2800.000000	80.960	-124.9247
2850.000000	81.410	-126.0510
2900.000000	81.812	-128.2871
2950.000000	82.105	-131.1169
3000.000000	82.272	-134.1577
3040.000000	82.329	-136.4341
3070.000000	82.348	-137.9998
3110.000000	82.360	-139.9297
3150.000000	82.371	-141.8125
3200.000000	82.358	-144.3337
3250.000000	82.249	-146.9629
3300.000000	82.026	-149.1358
3350.000000	81.757	-150.4356
3400.000000	81.540	-150.9822
3450.000000	81.419	-151.3199
3500.000000	81.370	-151.9313
3550.000000	81.325	-153.0842
3600.000000	81.194	-154.5932
3650.000000	80.952	-155.8148
3700.000000	80.668	-156.3817
3750.000000	80.400	-156.5605
3820.000000	80.007	-156.4520
3870.000000	79.688	-155.8197
3950.000000	79.208	-153.0021
4000.000000	79.031	-150.1986
4060.000000	79.016	-146.2172
4120.000000	79.257	-142.1624
4180.000000	79.739	-138.8313
4250.000000	80.495	-136.6971
4310.000000	81.185	-136.4872
4370.000000	81.851	-137.5025
4440.000000	82.545	-140.0685
4500.000000	83.022	-143.1703
4550.000000	83.332	-146.1633
4620.000000	83.641	-150.8054
4680.000000	83.783	-155.1948
4750.000000	83.734	-160.6499
4820.000000	83.396	-165.6064
4870.000000	83.024	-168.2912
4940.000000	82.444	-170.6687
5000.000000	81.973	-171.6116
5080.000000	81.453	-171.7593
5150.000000	81.137	-171.1838
5220.000000	80.980	-170.5097
5300.000000	80.944	-170.3773
5380.000000	80.941	-171.1745
5450.000000	80.890	-172.4048
5520.000000	80.763	-173.7776
5600.000000	80.533	-175.1392
5700.000000	80.169	-176.0761
5800.000000	79.819	-175.7385
5900.000000	79.696	-174.1975
6000.000000	79.934	-173.5395
6080.000000	80.201	-174.9592
6150.000000	80.322	-177.4079
6220.000000	80.270	179.6941
6300.000000	80.011	176.7153
6400.000000	79.535	174.3453
6500.000000	79.113	173.4257
6600.000000	78.902	172.8923
6700.000000	78.871	171.2473
6800.000000	78.802	167.8347
6900.000000	78.492	163.3488
7000.000000	77.870	158.9781
7100.000000	76.975	155.8743
7200.000000	75.947	154.7099
7300.000000	74.959	155.2974
7400.000000	74.127	156.9308
7500.000000	73.486	158.6177
7620.000000	72.852	159.5777
7750.000000	72.036	159.5510
7880.000000	70.868	161.0603
8000.000000	69.709	166.9149
8120.000000	69.030	175.6416
8250.000000	68.884	-177.2194
8380.000000	68.852	-172.5543
8500.000000	68.930	-167.0462
8620.000000	69.509	-161.1210
8750.000000	70.471	-159.9911
8850.000000	70.943	-163.3427
9000.000000	70.770	-170.7864
9120.000000	69.911	-175.3740
9250.000000	68.547	-176.7866
9380.000000	67.045	-173.7257
9500.000000	65.813	-166.3438
9620.000000	65.051	-155.7749
9750.000000	64.898	-144.2083
9880.000000	65.272	-134.8559
10000.000000	65.857	-128.6820
10150.000000	66.640	-123.6520
10300.000000	67.397	-119.8868
10440.000000	68.208	-116.5799
10600.000000	69.389	-114.0457
10750.000000	70.642	-114.3804
10900.000000	71.825	-117.9423
11060.000000	72.767	-125.0395
11200.000000	73.146	-133.2267
11380.000000	72.852	-144.5424
11500.000000	72.137	-151.1191
11720.000000	69.917	-157.0144
11800.000000	68.944	-155.8435
12060.000000	66.744	-132.9084
12200.000000	67.291	-113.4509
12410.000000	69.910	-97.6498
12500.000000	71.175	-96.3589
12650.000000	73.127	-98.7450
12800.000000	74.779	-104.8313
13150.000000	77.272	-126.8628
13200.000000	77.465	-130.5086
13400.000000	77.839	-145.4487
13600.000000	77.642	-160.0470
13800.000000	76.993	-173.4689
14000.000000	76.049	174.5942
14300.000000	74.414	158.5769
14500.000000	73.282	147.8043
14750.000000	71.678	133.1133
15000.000000	69.631	120.3544
15250.000000	67.734	151.9858
15500.000000	67.508	-145.7661
15750.000000	68.535	-153.2705
16000.000000	69.805	-164.6041
16250.000000	71.109	-176.7170
16500.000000	72.122	169.1570
16750.000000	72.517	153.6525
17000.000000	72.429	138.8428
17250.000000	72.371	124.8156
17500.000000	72.404	109.4987
17750.000000	72.081	92.7087
18000.000000	71.213	76.3318
18250.000000	70.004	62.0165
18500.000000	68.971	49.7740
18750.000000	68.671	37.2975
19000.000000	69.092	21.7203
19250.000000	69.804	1.8170
19500.000000	70.460	-21.4762
19750.000000	70.898	-43.8260
20000.000000	71.092	-57.3947
