* Measurement data measured by REW V5.31.1
* Source: EXCL: Headset (USB-C to 3.5mm Headphone Jack Adapter), MICROPHONE (Master Volume), 0, volume: 0.410. Timing signal peak level -35.2 dBFS, measurement signal peak level -30.9 dBFS
* Format: 256k Log Swept Sine, 1 sweep at -12.0 dBFS using an acoustic timing reference
* Dated: Oct 29, 2024 8:20:58 PM
* REW Settings:
*  C-weighting compensation: Off
*  Target level: 75.0 dB
* Note: Delay -0.0992 ms (-34 mm, -1.34 in) using estimated IR delay relative to Acoustic reference played from HEADPHONE L with no timing offset Clock adjustment: -57.3 ppm
* Measurement: L Ploopy DSP
* Smoothing: 1/12 octave
* Frequency Step: 1/48 octave
* Start Frequency: 20.000 Hz
*
* Freq(Hz)	SPL(dB)	Phase(degrees)
20.000000	64.269	-96.9025
20.299999	64.448	-97.7345
20.600000	64.636	-98.7407
20.900000	64.812	-99.9066
21.200001	64.961	-101.1489
21.400000	65.046	-101.9677
21.799999	65.187	-103.4755
22.000000	65.252	-104.1454
22.400000	65.387	-105.3532
22.700001	65.498	-106.2179
23.000000	65.613	-107.1144
23.299999	65.724	-108.0686
23.600000	65.821	-109.0630
24.000000	65.924	-110.3641
24.299999	65.986	-111.2537
24.700001	66.066	-112.2795
25.000000	66.137	-112.9544
25.400000	66.255	-113.8270
25.799999	66.394	-114.7797
26.200001	66.541	-115.8663
26.500000	66.649	-116.7535
26.900000	66.786	-117.9841
27.200001	66.888	-118.9206
27.600000	67.026	-120.1893
28.000000	67.167	-121.5074
28.500000	67.339	-123.2383
29.000000	67.494	-124.9895
29.500000	67.642	-126.6523
30.000000	67.804	-128.2208
30.400000	67.954	-129.4914
30.700001	68.077	-130.5085
31.100000	68.246	-131.9923
31.500000	68.415	-133.6350
32.000000	68.618	-135.9062
32.500000	68.811	-138.4417
33.000000	68.988	-141.3136
33.500000	69.134	-144.5909
34.000000	69.221	-148.2777
34.500000	69.227	-152.3016
35.000000	69.131	-156.5324
35.500000	68.920	-160.7948
36.000000	68.587	-164.8720
36.500000	68.137	-168.5201
37.000000	67.587	-171.5014
37.500000	66.968	-173.6234
38.200001	66.065	-174.9549
38.700001	65.456	-174.7649
39.500000	64.646	-172.9604
40.000000	64.267	-171.2895
40.599998	63.931	-169.0909
41.200001	63.704	-166.8969
41.799999	63.565	-164.8706
42.500000	63.478	-162.8427
43.099998	63.445	-161.4085
43.700001	63.435	-160.2468
44.400002	63.439	-159.1994
45.000000	63.450	-158.4861
45.500000	63.469	-158.0052
46.200001	63.505	-157.5850
46.799999	63.518	-157.4220
47.500000	63.502	-157.1270
48.200001	63.507	-156.5244
48.700001	63.550	-156.0917
49.400002	63.636	-155.7838
50.000000	63.689	-155.7408
50.799999	63.727	-155.6447
51.500000	63.762	-155.4776
52.200001	63.801	-155.3452
53.000000	63.846	-155.2530
53.799999	63.895	-155.2593
54.500000	63.931	-155.3784
55.200001	63.951	-155.5139
56.000000	63.966	-155.5656
57.000000	64.001	-155.4779
58.000000	64.057	-155.3593
59.000000	64.116	-155.2653
60.000000	64.170	-155.0938
60.799999	64.225	-154.9376
61.500000	64.278	-154.9017
62.200001	64.320	-154.9891
63.000000	64.347	-155.1640
64.000000	64.356	-155.3768
65.000000	64.348	-155.5563
66.000000	64.328	-155.6446
67.000000	64.308	-155.6022
68.000000	64.288	-155.3945
69.000000	64.275	-154.9662
70.000000	64.279	-154.3142
71.000000	64.309	-153.4395
72.000000	64.384	-152.3635
73.000000	64.529	-151.2560
74.000000	64.750	-150.4344
75.000000	65.016	-150.1735
76.199997	65.331	-150.6430
77.500000	65.618	-151.7830
78.800003	65.836	-153.2090
80.000000	65.980	-154.5035
81.199997	66.087	-155.6433
82.500000	66.180	-156.7043
83.800003	66.258	-157.7101
85.000000	66.313	-158.6696
86.199997	66.351	-159.6742
87.500000	66.374	-160.7767
88.500000	66.388	-161.6048
90.000000	66.411	-162.8484
91.199997	66.424	-163.8831
92.500000	66.420	-165.0190
93.800003	66.391	-166.0891
95.000000	66.350	-166.9579
96.199997	66.307	-167.7208
97.500000	66.267	-168.4499
98.800003	66.242	-169.1053
100.000000	66.239	-169.7067
101.500000	66.261	-170.6478
103.000000	66.275	-172.0468
104.400002	66.223	-173.7811
106.000000	66.029	-175.8801
107.500000	65.713	-177.3311
109.000000	65.330	-177.6933
110.599998	64.976	-176.7602
112.000000	64.797	-175.2897
113.800003	64.754	-173.4894
115.000000	64.796	-172.6492
117.199997	64.921	-171.7623
118.000000	64.967	-171.6002
120.599998	65.050	-171.5672
122.000000	65.036	-171.5688
124.099998	65.018	-171.4004
125.000000	65.031	-171.3708
126.500000	65.082	-171.4975
128.000000	65.156	-171.8656
131.500000	65.313	-173.6452
132.000000	65.322	-174.0030
134.000000	65.292	-175.6236
136.000000	65.152	-177.2968
138.000000	64.919	-178.6489
140.000000	64.621	-179.3730
143.000000	64.151	-179.0515
145.000000	63.891	-178.1452
147.500000	63.679	-176.7085
150.000000	63.584	-175.2611
152.500000	63.564	-173.9745
155.000000	63.569	-172.9661
157.500000	63.578	-172.2039
160.000000	63.595	-171.6815
162.500000	63.616	-171.2911
165.000000	63.640	-170.8491
167.500000	63.668	-170.3960
170.000000	63.699	-170.0882
172.500000	63.724	-169.9534
175.000000	63.739	-169.8259
177.500000	63.748	-169.5812
180.000000	63.761	-169.3476
182.500000	63.776	-169.2569
185.000000	63.785	-169.3056
187.500000	63.775	-169.4675
190.000000	63.737	-169.6802
192.500000	63.677	-169.8333
195.000000	63.603	-169.8328
197.500000	63.528	-169.6459
200.000000	63.462	-169.3115
203.000000	63.401	-168.7890
206.000000	63.355	-168.1924
209.000000	63.322	-167.6152
212.000000	63.307	-167.1102
214.000000	63.304	-166.7816
218.000000	63.302	-166.0552
220.000000	63.300	-165.6914
224.000000	63.290	-165.0740
227.000000	63.277	-164.6956
230.000000	63.254	-164.3071
233.000000	63.220	-163.7744
236.000000	63.175	-163.0240
240.000000	63.126	-161.9151
243.000000	63.119	-161.2534
247.000000	63.143	-160.4435
250.000000	63.174	-159.7220
254.000000	63.230	-158.6188
258.000000	63.304	-157.4121
262.000000	63.401	-156.2017
265.000000	63.494	-155.3490
269.000000	63.652	-154.3043
272.000000	63.799	-153.6186
276.000000	64.025	-152.9567
280.000000	64.258	-152.7002
285.000000	64.502	-152.9117
290.000000	64.655	-153.3073
295.000000	64.755	-153.3247
300.000000	64.896	-152.8830
304.000000	65.079	-152.5097
307.000000	65.254	-152.4219
311.000000	65.512	-152.7177
315.000000	65.756	-153.5359
320.000000	65.980	-155.1243
325.000000	66.084	-156.9004
330.000000	66.087	-158.3836
335.000000	66.040	-159.3088
340.000000	66.004	-159.6641
345.000000	66.028	-159.6279
350.000000	66.138	-159.5084
355.000000	66.331	-159.6349
360.000000	66.584	-160.2600
365.000000	66.861	-161.5159
370.000000	67.128	-163.4417
375.000000	67.353	-166.0319
382.000000	67.553	-170.6768
387.000000	67.579	-174.6090
395.000000	67.340	178.3690
400.000000	66.967	173.8539
406.000000	66.254	168.8980
412.000000	65.252	165.2883
418.000000	64.023	164.0761
425.000000	62.517	166.8825
431.000000	61.461	172.8276
437.000000	60.867	-179.6880
444.000000	60.779	-171.9467
450.000000	61.017	-167.4412
455.000000	61.287	-165.2052
462.000000	61.626	-163.8345
468.000000	61.809	-163.6680
475.000000	61.865	-163.9158
482.000000	61.773	-164.0116
487.000000	61.641	-163.7080
494.000000	61.414	-162.4990
500.000000	61.238	-160.5751
508.000000	61.174	-156.6977
515.000000	61.420	-152.6805
522.000000	61.985	-149.5968
530.000000	62.808	-149.1109
538.000000	63.458	-152.1067
545.000000	63.689	-156.3264
552.000000	63.593	-160.6132
560.000000	63.191	-164.4528
570.000000	62.490	-167.1423
580.000000	61.758	-168.0992
590.000000	61.047	-168.2099
600.000000	60.319	-167.9789
608.000000	59.686	-167.6370
615.000000	59.079	-167.2144
622.000000	58.410	-166.6897
630.000000	57.540	-165.9976
640.000000	56.236	-164.7987
650.000000	54.795	-161.6040
660.000000	54.312	-144.9104
670.000000	56.579	-64.8936
680.000000	60.353	-38.1942
690.000000	63.844	-41.5491
700.000000	66.554	-51.9071
710.000000	68.375	-65.4080
720.000000	69.315	-79.6632
730.000000	69.500	-92.5642
740.000000	69.181	-102.6766
750.000000	68.645	-109.6354
762.000000	68.024	-114.5183
775.000000	67.563	-117.0928
788.000000	67.321	-118.4430
800.000000	67.212	-119.4453
812.000000	67.142	-120.4323
825.000000	67.068	-121.4063
838.000000	66.985	-122.1697
850.000000	66.916	-122.6279
862.000000	66.871	-122.9403
875.000000	66.845	-123.3012
885.000000	66.825	-123.6454
900.000000	66.770	-124.1931
912.000000	66.699	-124.5406
925.000000	66.603	-124.7412
938.000000	66.497	-124.7282
950.000000	66.401	-124.5234
962.000000	66.316	-124.1765
975.000000	66.239	-123.7549
988.000000	66.154	-123.4182
1000.000000	66.034	-123.1057
1015.000000	65.815	-122.0863
1030.000000	65.620	-119.7672
1044.000000	65.590	-116.8057
1060.000000	65.757	-113.5868
1075.000000	66.032	-111.1771
1090.000000	66.381	-109.2022
1106.000000	66.848	-107.5303
1120.000000	67.347	-106.6496
1138.000000	68.094	-106.7225
1150.000000	68.636	-107.7709
1172.000000	69.594	-112.3868
1180.000000	69.873	-115.0343
1206.000000	70.121	-126.3706
1220.000000	69.660	-132.4878
1241.000000	68.280	-137.7955
1250.000000	67.585	-138.1448
1265.000000	66.505	-136.6233
1280.000000	65.653	-133.4412
1315.000000	64.628	-124.5422
1320.000000	64.562	-123.3863
1340.000000	64.403	-119.2861
1360.000000	64.330	-115.8857
1380.000000	64.282	-112.9829
1400.000000	64.214	-110.3896
1430.000000	64.041	-105.9986
1450.000000	63.970	-102.2408
1475.000000	64.039	-97.1775
1500.000000	64.261	-92.3766
1525.000000	64.599	-87.8866
1550.000000	65.058	-83.9299
1575.000000	65.584	-80.9037
1600.000000	66.126	-78.6490
1625.000000	66.671	-77.1014
1650.000000	67.200	-76.2317
1675.000000	67.692	-76.0175
1700.000000	68.120	-76.3684
1725.000000	68.472	-77.1973
1750.000000	68.691	-78.5299
1775.000000	68.705	-79.7157
1800.000000	68.589	-79.7074
1825.000000	68.520	-78.4437
1850.000000	68.575	-76.7210
1875.000000	68.725	-75.0765
1900.000000	68.935	-73.6840
1925.000000	69.172	-72.6240
1950.000000	69.412	-71.8293
1975.000000	69.654	-71.2466
2000.000000	69.887	-70.9491
2030.000000	70.124	-70.8642
2060.000000	70.322	-70.8216
2090.000000	70.502	-70.8642
2120.000000	70.636	-71.1019
2140.000000	70.691	-71.2481
2180.000000	70.724	-71.3747
2200.000000	70.693	-71.1984
2240.000000	70.627	-69.7468
2270.000000	70.676	-68.0737
2300.000000	70.816	-66.5046
2330.000000	70.992	-65.3158
2360.000000	71.148	-64.2870
2400.000000	71.391	-62.6032
2430.000000	71.633	-61.6597
2470.000000	71.920	-61.1090
2500.000000	72.075	-60.8012
2540.000000	72.240	-60.0291
2580.000000	72.446	-58.7497
2620.000000	72.734	-57.4670
2650.000000	72.989	-56.6934
2690.000000	73.361	-56.0616
2720.000000	73.639	-55.9532
2760.000000	73.976	-56.1661
2800.000000	74.275	-56.5444
2850.000000	74.649	-57.0755
2900.000000	75.051	-58.1824
2950.000000	75.393	-60.2423
3000.000000	75.566	-63.0454
3040.000000	75.546	-65.3067
3070.000000	75.447	-66.7572
3110.000000	75.233	-68.0936
3150.000000	74.995	-68.6168
3200.000000	74.762	-68.5071
3250.000000	74.595	-68.3479
3300.000000	74.386	-68.1895
3350.000000	74.120	-67.1592
3400.000000	73.971	-64.9024
3450.000000	74.069	-62.7347
3500.000000	74.299	-61.9484
3550.000000	74.468	-62.6549
3600.000000	74.419	-64.1740
3650.000000	74.103	-65.1642
3700.000000	73.658	-64.5752
3750.000000	73.272	-62.5401
3820.000000	72.973	-58.7646
3870.000000	72.893	-56.1721
3950.000000	72.832	-52.4807
4000.000000	72.803	-50.0574
4060.000000	72.809	-46.8295
4120.000000	72.899	-43.1453
4180.000000	73.156	-39.1631
4250.000000	73.686	-35.3597
4310.000000	74.206	-33.4958
4370.000000	74.680	-32.5656
4440.000000	75.176	-31.8242
4500.000000	75.650	-31.1829
4550.000000	76.128	-31.0514
4620.000000	76.836	-32.4294
4680.000000	77.328	-35.1424
4750.000000	77.664	-39.4300
4820.000000	77.708	-44.1612
4870.000000	77.558	-47.3714
4940.000000	77.135	-51.1188
5000.000000	76.620	-53.2868
5080.000000	75.837	-54.2005
5150.000000	75.219	-53.4461
5220.000000	74.717	-51.9832
5300.000000	74.269	-49.7155
5380.000000	73.994	-47.0732
5450.000000	73.900	-45.1097
5520.000000	73.859	-43.9091
5600.000000	73.753	-43.2214
5700.000000	73.492	-42.1291
5800.000000	73.278	-40.2571
5900.000000	73.219	-38.7937
6000.000000	73.165	-38.5910
6080.000000	73.003	-38.9987
6150.000000	72.749	-39.2634
6220.000000	72.411	-39.0345
6300.000000	72.003	-37.8634
6400.000000	71.628	-35.3405
6500.000000	71.511	-32.9316
6600.000000	71.582	-31.9128
6700.000000	71.683	-32.8614
6800.000000	71.612	-35.7845
6900.000000	71.155	-39.7789
7000.000000	70.222	-43.0907
7100.000000	68.919	-44.0965
7200.000000	67.465	-42.1076
7300.000000	66.082	-37.3442
7400.000000	64.942	-30.6115
7500.000000	64.137	-23.1025
7620.000000	63.573	-14.6760
7750.000000	63.239	-7.2638
7880.000000	62.971	-0.9228
8000.000000	62.829	4.8098
8120.000000	62.871	9.4943
8250.000000	62.929	12.2852
8380.000000	62.810	13.7577
8500.000000	62.656	14.7971
8620.000000	62.608	14.5803
8750.000000	62.505	11.2302
8850.000000	62.090	6.4986
9000.000000	60.478	-0.8371
9120.000000	58.270	-2.5783
9250.000000	55.231	5.3396
9380.000000	52.132	25.0625
9500.000000	49.755	47.1174
9620.000000	48.108	72.3947
9750.000000	47.562	104.4623
9880.000000	48.441	133.7759
10000.000000	50.091	154.4831
10150.000000	52.636	172.4558
10300.000000	55.224	-177.3724
10440.000000	57.437	-172.9412
10600.000000	59.684	-171.6390
10750.000000	61.479	-173.3973
10900.000000	62.873	-177.7366
11060.000000	63.780	175.5402
11200.000000	63.997	168.9789
11380.000000	63.456	161.7301
11500.000000	62.642	159.0161
11720.000000	60.586	161.6381
11800.000000	59.836	165.7013
12060.000000	58.659	-171.2584
12200.000000	59.223	-157.7963
12410.000000	61.142	-143.8377
12500.000000	62.122	-140.4847
12650.000000	63.760	-137.9555
12800.000000	65.262	-138.7448
13150.000000	67.658	-149.7029
13200.000000	67.844	-151.9124
13400.000000	68.168	-161.3286
13600.000000	67.866	-170.4500
13800.000000	67.089	-178.1380
14000.000000	66.048	175.8891
14300.000000	64.348	168.6847
14500.000000	63.130	163.7084
14750.000000	61.269	157.0207
15000.000000	58.863	153.9161
15250.000000	56.779	-169.0022
15500.000000	57.083	-103.8089
15750.000000	58.886	-102.3049
16000.000000	60.517	-108.6904
16250.000000	61.549	-117.1473
16500.000000	61.786	-125.7792
16750.000000	61.392	-131.2355
17000.000000	61.366	-131.8046
17250.000000	62.391	-133.1196
17500.000000	63.470	-140.9323
17750.000000	63.656	-153.1888
18000.000000	62.878	-165.2651
18250.000000	61.553	-174.3823
18500.000000	60.376	179.6468
18750.000000	60.113	174.2409
19000.000000	60.848	165.7406
19250.000000	62.005	152.2535
19500.000000	63.093	134.9043
19750.000000	63.877	118.7070
20000.000000	64.266	111.8090
