* Measurement data measured by REW V5.31.1
* Source: EXCL: Headset (USB-C to 3.5mm Headphone Jack Adapter), MICROPHONE (Master Volume), 0, volume: 0.420. Timing signal peak level -29.4 dBFS, measurement signal peak level -26.4 dBFS
* Format: 256k Log Swept Sine, 1 sweep at -12.0 dBFS using an acoustic timing reference
* Dated: Jul 12, 2024 10:07:47 PM
* REW Settings:
*  C-weighting compensation: Off
*  Target level: 75.0 dB
* Note: Delay -0.4006 ms (-137 mm, -5.41 in) using estimated IR delay relative to Acoustic reference played from  R with no timing offset Clock adjustment: 1.6 ppm
* Measurement: R s2 ZMF PL
* Smoothing: 1/12 octave
* Frequency Step: 1/48 octave
* Start Frequency: 20.000 Hz
*
* Freq(Hz)	SPL(dB)	Phase(degrees)
20.000000	66.199	-59.1582
20.299999	66.376	-59.9156
20.600000	66.559	-60.6831
20.900000	66.743	-61.4841
21.200001	66.923	-62.3177
21.400000	67.039	-62.8824
21.799999	67.258	-64.0005
22.000000	67.362	-64.5426
22.400000	67.565	-65.5826
22.700001	67.714	-66.3304
23.000000	67.861	-67.0620
23.299999	68.004	-67.7836
23.600000	68.143	-68.4946
24.000000	68.321	-69.4136
24.299999	68.451	-70.0743
24.700001	68.624	-70.9266
25.000000	68.756	-71.5657
25.400000	68.932	-72.4559
25.799999	69.100	-73.4082
26.200001	69.252	-74.3940
26.500000	69.354	-75.1161
26.900000	69.480	-76.0073
27.200001	69.573	-76.6132
27.600000	69.705	-77.3689
28.000000	69.847	-78.1279
28.500000	70.026	-79.1445
29.000000	70.195	-80.2014
29.500000	70.355	-81.2125
30.000000	70.523	-82.1888
30.400000	70.665	-83.0228
30.700001	70.769	-83.7108
31.100000	70.891	-84.6923
31.500000	70.987	-85.6649
32.000000	71.077	-86.7035
32.500000	71.166	-87.4657
33.000000	71.281	-88.0558
33.500000	71.422	-88.6593
34.000000	71.570	-89.3660
34.500000	71.707	-90.1350
35.000000	71.834	-90.8962
35.500000	71.958	-91.6357
36.000000	72.081	-92.3851
36.500000	72.198	-93.1650
37.000000	72.304	-93.9620
37.500000	72.399	-94.7488
38.200001	72.519	-95.7979
38.700001	72.599	-96.5025
39.500000	72.723	-97.5681
40.000000	72.801	-98.2164
40.599998	72.894	-98.9890
41.200001	72.984	-99.7432
41.799999	73.075	-100.4672
42.500000	73.186	-101.2947
43.099998	73.285	-102.0142
43.700001	73.382	-102.7407
44.400002	73.493	-103.5792
45.000000	73.585	-104.2852
45.500000	73.660	-104.8600
46.200001	73.761	-105.6299
46.799999	73.848	-106.2661
47.500000	73.951	-107.0334
48.200001	74.043	-107.8592
48.700001	74.097	-108.4564
49.400002	74.160	-109.2386
50.000000	74.213	-109.8436
50.799999	74.292	-110.6296
51.500000	74.367	-111.3693
52.200001	74.442	-112.1639
53.000000	74.526	-113.1281
53.799999	74.600	-114.1627
54.500000	74.644	-115.0515
55.200001	74.673	-115.7734
56.000000	74.718	-116.3424
57.000000	74.814	-116.9420
58.000000	74.917	-117.6227
59.000000	75.005	-118.2409
60.000000	75.096	-118.7986
60.799999	75.165	-119.2768
61.500000	75.218	-119.7053
62.200001	75.268	-120.1158
63.000000	75.327	-120.5732
64.000000	75.406	-121.1886
65.000000	75.482	-121.8516
66.000000	75.559	-122.5172
67.000000	75.641	-123.2159
68.000000	75.720	-123.9758
69.000000	75.789	-124.7553
70.000000	75.853	-125.5134
71.000000	75.917	-126.2573
72.000000	75.980	-127.0183
73.000000	76.039	-127.7902
74.000000	76.092	-128.5403
75.000000	76.142	-129.2687
76.199997	76.195	-130.1365
77.500000	76.237	-131.0377
78.800003	76.269	-131.8466
80.000000	76.296	-132.5303
81.199997	76.325	-133.1697
82.500000	76.361	-133.8208
83.800003	76.405	-134.4648
85.000000	76.449	-135.0703
86.199997	76.493	-135.6786
87.500000	76.543	-136.3569
88.500000	76.581	-136.9006
90.000000	76.636	-137.7468
91.199997	76.678	-138.4500
92.500000	76.718	-139.2357
93.800003	76.752	-140.0278
95.000000	76.780	-140.7548
96.199997	76.805	-141.4910
97.500000	76.827	-142.3102
98.800003	76.843	-143.1411
100.000000	76.849	-143.8990
101.500000	76.846	-144.8063
103.000000	76.832	-145.6442
104.400002	76.813	-146.3578
106.000000	76.789	-147.1367
107.500000	76.763	-147.8566
109.000000	76.735	-148.5630
110.599998	76.702	-149.3303
112.000000	76.665	-149.9953
113.800003	76.611	-150.7861
115.000000	76.577	-151.2874
117.199997	76.515	-152.1824
118.000000	76.490	-152.4915
120.599998	76.399	-153.3149
122.000000	76.349	-153.6262
124.099998	76.278	-154.0518
125.000000	76.248	-154.2456
126.500000	76.197	-154.5872
128.000000	76.147	-154.9415
131.500000	76.034	-155.7323
132.000000	76.018	-155.8341
134.000000	75.952	-156.2186
136.000000	75.881	-156.5891
138.000000	75.806	-156.9432
140.000000	75.729	-157.2607
143.000000	75.610	-157.6373
145.000000	75.529	-157.8122
147.500000	75.432	-157.9485
150.000000	75.339	-157.9985
152.500000	75.253	-157.9891
155.000000	75.174	-157.9855
157.500000	75.101	-157.9917
160.000000	75.034	-157.9700
162.500000	74.971	-157.9264
165.000000	74.908	-157.8859
167.500000	74.842	-157.8581
170.000000	74.779	-157.8369
172.500000	74.719	-157.8062
175.000000	74.661	-157.7520
177.500000	74.602	-157.6793
180.000000	74.543	-157.6093
182.500000	74.481	-157.5562
185.000000	74.418	-157.5125
187.500000	74.351	-157.4515
190.000000	74.281	-157.3485
192.500000	74.208	-157.2026
195.000000	74.136	-157.0338
197.500000	74.064	-156.8491
200.000000	73.992	-156.6454
203.000000	73.910	-156.3700
206.000000	73.829	-156.0524
209.000000	73.748	-155.7211
212.000000	73.668	-155.3990
214.000000	73.615	-155.1734
218.000000	73.513	-154.6529
220.000000	73.464	-154.3543
224.000000	73.370	-153.7028
227.000000	73.304	-153.1893
230.000000	73.242	-152.6697
233.000000	73.183	-152.1403
236.000000	73.129	-151.5942
240.000000	73.063	-150.8752
243.000000	73.019	-150.3777
247.000000	72.965	-149.7465
250.000000	72.927	-149.2661
254.000000	72.879	-148.6202
258.000000	72.833	-147.9852
262.000000	72.790	-147.3624
265.000000	72.759	-146.9175
269.000000	72.716	-146.3602
272.000000	72.684	-145.9603
276.000000	72.638	-145.4421
280.000000	72.589	-144.9313
285.000000	72.525	-144.3016
290.000000	72.453	-143.6625
295.000000	72.370	-143.0306
300.000000	72.278	-142.4016
304.000000	72.199	-141.8661
307.000000	72.136	-141.4409
311.000000	72.046	-140.8416
315.000000	71.951	-140.1935
320.000000	71.826	-139.2861
325.000000	71.698	-138.2543
330.000000	71.570	-137.0880
335.000000	71.449	-135.7987
340.000000	71.340	-134.4183
345.000000	71.249	-132.9774
350.000000	71.173	-131.4993
355.000000	71.107	-130.0005
360.000000	71.050	-128.4766
365.000000	71.004	-126.9330
370.000000	70.970	-125.3909
375.000000	70.949	-123.8701
382.000000	70.937	-121.8169
387.000000	70.937	-120.4216
395.000000	70.947	-118.3236
400.000000	70.957	-117.0808
406.000000	70.967	-115.6188
412.000000	70.977	-114.1599
418.000000	70.989	-112.7101
425.000000	71.004	-111.0671
431.000000	71.014	-109.6853
437.000000	71.023	-108.2945
444.000000	71.038	-106.6582
450.000000	71.054	-105.2625
455.000000	71.069	-104.1152
462.000000	71.086	-102.5356
468.000000	71.094	-101.1834
475.000000	71.096	-99.5710
482.000000	71.098	-97.9120
487.000000	71.102	-96.7008
494.000000	71.113	-94.9662
500.000000	71.128	-93.4454
508.000000	71.158	-91.3760
515.000000	71.192	-89.5201
522.000000	71.238	-87.6177
530.000000	71.310	-85.4059
538.000000	71.405	-83.2037
545.000000	71.504	-81.3231
552.000000	71.613	-79.5233
560.000000	71.740	-77.6189
570.000000	71.896	-75.5010
580.000000	72.039	-73.5792
590.000000	72.169	-71.6534
600.000000	72.300	-69.6336
608.000000	72.416	-67.9989
615.000000	72.525	-66.6000
622.000000	72.639	-65.2441
630.000000	72.773	-63.7502
640.000000	72.946	-61.9816
650.000000	73.121	-60.3361
660.000000	73.292	-58.8049
670.000000	73.454	-57.3594
680.000000	73.606	-55.9621
690.000000	73.752	-54.5941
700.000000	73.894	-53.2559
710.000000	74.033	-51.9514
720.000000	74.167	-50.6927
730.000000	74.291	-49.4834
740.000000	74.404	-48.2974
750.000000	74.510	-47.1024
762.000000	74.629	-45.6288
775.000000	74.755	-43.9629
788.000000	74.886	-42.2263
800.000000	75.018	-40.6061
812.000000	75.162	-39.0137
825.000000	75.330	-37.3323
838.000000	75.511	-35.7541
850.000000	75.679	-34.4432
862.000000	75.839	-33.2371
875.000000	76.007	-31.9917
885.000000	76.138	-31.0923
900.000000	76.330	-29.9169
912.000000	76.466	-29.1302
925.000000	76.588	-28.3549
938.000000	76.685	-27.5850
950.000000	76.760	-26.8385
962.000000	76.827	-26.0647
975.000000	76.892	-25.2328
988.000000	76.945	-24.4093
1000.000000	76.982	-23.6329
1015.000000	77.013	-22.6003
1030.000000	77.039	-21.4517
1044.000000	77.076	-20.3156
1060.000000	77.134	-19.0991
1075.000000	77.190	-18.1648
1090.000000	77.219	-17.4453
1106.000000	77.200	-16.7314
1120.000000	77.150	-15.9871
1138.000000	77.073	-14.8616
1150.000000	77.015	-14.0907
1172.000000	76.878	-12.6354
1180.000000	76.818	-12.0675
1206.000000	76.593	-10.0438
1220.000000	76.453	-8.8384
1241.000000	76.210	-6.8439
1250.000000	76.094	-5.8639
1265.000000	75.897	-4.0018
1280.000000	75.714	-1.9050
1315.000000	75.352	3.3878
1320.000000	75.306	4.1749
1340.000000	75.133	7.3966
1360.000000	74.980	10.7229
1380.000000	74.849	14.1376
1400.000000	74.746	17.5541
1430.000000	74.620	22.4679
1450.000000	74.530	25.5983
1475.000000	74.383	29.4966
1500.000000	74.210	33.7444
1525.000000	74.058	38.2595
1550.000000	73.915	42.8305
1575.000000	73.767	47.6129
1600.000000	73.640	52.7528
1625.000000	73.562	58.0948
1650.000000	73.518	63.4142
1675.000000	73.490	68.8866
1700.000000	73.510	74.5895
1725.000000	73.593	80.3126
1750.000000	73.730	85.9069
1775.000000	73.905	91.2808
1800.000000	74.106	96.4488
1825.000000	74.331	101.3920
1850.000000	74.564	106.0110
1875.000000	74.775	110.3763
1900.000000	74.958	114.7218
1925.000000	75.131	119.1772
1950.000000	75.311	123.7498
1975.000000	75.507	128.4373
2000.000000	75.736	133.2352
2030.000000	76.069	138.9427
2060.000000	76.454	144.3971
2090.000000	76.874	149.4910
2120.000000	77.304	154.1788
2140.000000	77.589	157.1104
2180.000000	78.140	162.5531
2200.000000	78.395	165.0524
2240.000000	78.824	169.9216
2270.000000	79.112	173.9221
2300.000000	79.444	178.2368
2330.000000	79.845	-177.5391
2360.000000	80.282	-173.7603
2400.000000	80.838	-169.4225
2430.000000	81.212	-166.4323
2470.000000	81.675	-162.5173
2500.000000	82.016	-159.6117
2540.000000	82.473	-155.9204
2580.000000	82.912	-152.5719
2620.000000	83.307	-149.5040
2650.000000	83.572	-147.2998
2690.000000	83.888	-144.4168
2720.000000	84.101	-142.2669
2760.000000	84.363	-139.3868
2800.000000	84.608	-136.5241
2850.000000	84.884	-133.0457
2900.000000	85.114	-129.6428
2950.000000	85.299	-126.2312
3000.000000	85.444	-122.7572
3040.000000	85.536	-119.8864
3070.000000	85.597	-117.6676
3110.000000	85.676	-114.6277
3150.000000	85.759	-111.5314
3200.000000	85.877	-107.6922
3250.000000	86.005	-104.0349
3300.000000	86.121	-100.6615
3350.000000	86.199	-97.5397
3400.000000	86.233	-94.5840
3450.000000	86.220	-91.7740
3500.000000	86.148	-89.0832
3550.000000	86.008	-86.4392
3600.000000	85.793	-83.7747
3650.000000	85.491	-80.9573
3700.000000	85.102	-77.7955
3750.000000	84.644	-74.1203
3820.000000	83.935	-67.9296
3870.000000	83.419	-62.7379
3950.000000	82.647	-53.2893
4000.000000	82.220	-46.8494
4060.000000	81.774	-38.7656
4120.000000	81.399	-30.4434
4180.000000	81.089	-22.0128
4250.000000	80.791	-12.1274
4310.000000	80.581	-3.6162
4370.000000	80.412	4.9282
4440.000000	80.268	14.8843
4500.000000	80.183	23.3697
4550.000000	80.137	30.4114
4620.000000	80.111	40.2589
4680.000000	80.132	48.7017
4750.000000	80.223	58.4903
4820.000000	80.393	68.0765
4870.000000	80.566	74.7095
4940.000000	80.874	83.5571
5000.000000	81.191	90.6091
5080.000000	81.665	99.0693
5150.000000	82.097	105.4416
5220.000000	82.502	110.7439
5300.000000	82.864	115.4769
5380.000000	83.032	119.0073
5450.000000	82.962	121.4917
5520.000000	82.663	123.8810
5600.000000	82.045	127.1122
5700.000000	80.935	132.8094
5800.000000	79.615	140.9547
5900.000000	78.265	151.4620
6000.000000	77.013	163.7459
6080.000000	76.114	174.4099
6150.000000	75.402	-175.8856
6220.000000	74.750	-165.9570
6300.000000	74.060	-154.3932
6400.000000	73.260	-139.5323
6500.000000	72.538	-124.0586
6600.000000	71.937	-107.9741
6700.000000	71.502	-91.5846
6800.000000	71.249	-75.4178
6900.000000	71.144	-59.9874
7000.000000	71.116	-45.5219
7100.000000	71.100	-31.9629
7200.000000	71.045	-19.1144
7300.000000	70.919	-6.6699
7400.000000	70.721	5.7482
7500.000000	70.489	18.4021
7620.000000	70.237	33.8481
7750.000000	70.047	50.4282
7880.000000	69.937	66.3361
8000.000000	69.877	80.1488
8120.000000	69.837	92.8940
8250.000000	69.773	105.0959
8380.000000	69.574	115.3187
8500.000000	69.135	123.1738
8620.000000	68.343	130.0864
8750.000000	67.031	137.3622
8850.000000	65.716	143.2158
9000.000000	63.351	152.1556
9120.000000	61.228	158.1868
9250.000000	58.889	160.7102
9380.000000	57.007	142.8384
9500.000000	56.274	26.2920
9620.000000	56.324	14.0013
9750.000000	56.503	16.8821
9880.000000	56.416	24.9949
10000.000000	56.101	36.2377
10150.000000	55.608	55.0248
10300.000000	55.356	78.1158
10440.000000	55.591	101.4377
10600.000000	56.439	127.1978
10750.000000	57.577	148.2943
10900.000000	58.657	165.5073
11060.000000	59.297	-178.9065
11200.000000	59.310	-163.4998
11380.000000	59.426	-134.4713
11500.000000	60.217	-112.9963
11720.000000	62.374	-84.9211
11800.000000	63.033	-77.7134
12060.000000	64.331	-57.1580
12200.000000	64.668	-45.4225
12410.000000	65.203	-25.5986
12500.000000	65.576	-16.5933
12650.000000	66.468	-1.9383
12800.000000	67.613	11.0086
13150.000000	70.031	30.0098
13200.000000	70.234	31.4783
13400.000000	70.507	35.1101
13600.000000	69.818	36.5478
13800.000000	68.154	37.2443
14000.000000	65.640	37.0399
14300.000000	61.110	10.5338
14500.000000	59.355	-49.9312
14750.000000	61.293	-53.2078
15000.000000	65.218	-39.4670
15250.000000	68.517	-30.4835
15500.000000	70.448	-27.7725
15750.000000	70.942	-27.1554
16000.000000	70.403	-24.6877
16250.000000	69.463	-18.9526
16500.000000	68.782	-10.5779
16750.000000	68.862	-1.4442
17000.000000	69.643	5.9323
17250.000000	70.421	9.8553
17500.000000	70.487	11.0674
17750.000000	69.546	12.3177
18000.000000	67.781	16.1492
18250.000000	65.775	22.5457
18500.000000	64.146	29.1243
18750.000000	62.989	33.8100
19000.000000	62.014	35.8584
19250.000000	61.032	34.6313
19500.000000	60.029	29.5219
19750.000000	59.109	24.8294
20000.000000	58.534	35.3682
