* Measurement data measured by REW V5.20.13
* Source: Headset (USB-C to 3.5mm Headphone Jack Adapter), MICROPHONE (Master Volume), R, volume: 0.360. Timing signal peak level -25.9 dBFS, measurement signal peak level -22.3 dBFS
* Format: 256k Log Swept Sine, 1 sweep at -12.0 dBFS using an acoustic timing reference
* Dated: Jun 10, 2024 9:09:52 PM
* REW Settings:
*  C-weighting compensation: Off
*  Target level: 75.0 dB
* Note: Delay -0.0613 ms (-21 mm, -0.83 in) using estimated IR delay relative to Acoustic reference played from  L with no timing offset Clock adjustment: 0.7 ppm
* Measurement: Prototype Stock Senn L
* Smoothing: 1/12 octave
* Frequency Step: 1/48 octave
* Start Frequency: 20.000 Hz
*
* Freq(Hz)	SPL(dB)	Phase(degrees)
20.000000	62.733	-30.9977
20.299999	62.976	-31.8410
20.600000	63.218	-32.6515
20.900000	63.461	-33.4512
21.200001	63.702	-34.2623
21.400000	63.860	-34.8147
21.799999	64.169	-35.9416
22.000000	64.319	-36.5103
22.400000	64.610	-37.6415
22.700001	64.822	-38.4762
23.000000	65.030	-39.2988
23.299999	65.236	-40.1158
23.600000	65.438	-40.9332
24.000000	65.703	-42.0288
24.299999	65.895	-42.8521
24.700001	66.146	-43.9411
25.000000	66.329	-44.7427
25.400000	66.570	-45.7855
25.799999	66.810	-46.8053
26.200001	67.050	-47.8212
26.500000	67.229	-48.5934
26.900000	67.464	-49.6456
27.200001	67.637	-50.4495
27.600000	67.859	-51.5283
28.000000	68.073	-52.5953
28.500000	68.332	-53.8932
29.000000	68.585	-55.1541
29.500000	68.834	-56.3932
30.000000	69.079	-57.6168
30.400000	69.272	-58.5857
30.700001	69.416	-59.3117
31.100000	69.609	-60.2951
31.500000	69.798	-61.3142
32.000000	70.024	-62.6479
32.500000	70.232	-64.0140
33.000000	70.422	-65.3449
33.500000	70.603	-66.5983
34.000000	70.784	-67.7855
34.500000	70.967	-68.9540
35.000000	71.151	-70.1385
35.500000	71.329	-71.3416
36.000000	71.502	-72.5463
36.500000	71.669	-73.7416
37.000000	71.833	-74.9302
37.500000	71.991	-76.1170
38.200001	72.204	-77.7689
38.700001	72.349	-78.9316
39.500000	72.574	-80.7649
40.000000	72.709	-81.9063
40.599998	72.865	-83.2788
41.200001	73.015	-84.6530
41.799999	73.157	-86.0324
42.500000	73.313	-87.6593
43.099998	73.436	-89.0675
43.700001	73.549	-90.4745
44.400002	73.668	-92.1021
45.000000	73.760	-93.4831
45.500000	73.828	-94.6241
46.200001	73.909	-96.2039
46.799999	73.961	-97.5277
47.500000	73.995	-98.9741
48.200001	74.003	-100.2029
48.700001	74.001	-100.8917
49.400002	74.008	-101.5759
50.000000	74.038	-101.9532
50.799999	74.130	-102.3260
51.500000	74.256	-102.7202
52.200001	74.406	-103.2962
53.000000	74.586	-104.1888
53.799999	74.763	-105.2918
54.500000	74.908	-106.4060
55.200001	75.040	-107.6236
56.000000	75.170	-109.0795
57.000000	75.305	-110.9100
58.000000	75.410	-112.6588
59.000000	75.496	-114.2440
60.000000	75.579	-115.6566
60.799999	75.649	-116.7093
61.500000	75.714	-117.6194
62.200001	75.780	-118.5478
63.000000	75.851	-119.6429
64.000000	75.928	-121.0444
65.000000	75.994	-122.4379
66.000000	76.054	-123.8091
67.000000	76.110	-125.1751
68.000000	76.158	-126.5334
69.000000	76.197	-127.8549
70.000000	76.227	-129.1115
71.000000	76.253	-130.2927
72.000000	76.279	-131.4057
73.000000	76.307	-132.4720
74.000000	76.341	-133.5268
75.000000	76.380	-134.6107
76.199997	76.426	-135.9839
77.500000	76.465	-137.5556
78.800003	76.486	-139.1707
80.000000	76.483	-140.6363
81.199997	76.461	-142.0087
82.500000	76.424	-143.3362
83.800003	76.389	-144.5014
85.000000	76.366	-145.4955
86.199997	76.353	-146.4810
87.500000	76.342	-147.5800
88.500000	76.332	-148.4465
90.000000	76.311	-149.7571
91.199997	76.288	-150.7936
92.500000	76.257	-151.8885
93.800003	76.220	-152.9467
95.000000	76.184	-153.8892
96.199997	76.144	-154.8067
97.500000	76.097	-155.7842
98.800003	76.042	-156.7472
100.000000	75.982	-157.6149
101.500000	75.894	-158.6429
103.000000	75.794	-159.5632
104.400002	75.697	-160.2997
106.000000	75.593	-161.0139
107.500000	75.501	-161.5800
109.000000	75.415	-162.0414
110.599998	75.333	-162.4269
112.000000	75.274	-162.7112
113.800003	75.216	-163.0732
115.000000	75.188	-163.3398
117.199997	75.154	-163.9144
118.000000	75.144	-164.1496
120.599998	75.098	-164.9087
122.000000	75.067	-165.2611
124.099998	75.019	-165.7414
125.000000	74.999	-165.9427
126.500000	74.968	-166.2740
128.000000	74.944	-166.5950
131.500000	74.953	-167.4300
132.000000	74.963	-167.5930
134.000000	75.022	-168.4782
136.000000	75.083	-169.8557
138.000000	75.101	-171.7768
140.000000	75.023	-174.0819
143.000000	74.666	-177.3835
145.000000	74.291	-178.8388
147.500000	73.763	-179.4492
150.000000	73.269	-178.9067
152.500000	72.868	-177.6963
155.000000	72.565	-176.2495
157.500000	72.336	-174.7420
160.000000	72.160	-173.1159
162.500000	72.038	-171.2826
165.000000	71.979	-169.2577
167.500000	71.994	-167.1857
170.000000	72.080	-165.2834
172.500000	72.219	-163.7176
175.000000	72.387	-162.5800
177.500000	72.563	-161.8806
180.000000	72.734	-161.5551
182.500000	72.897	-161.5044
185.000000	73.053	-161.6392
187.500000	73.197	-161.9071
190.000000	73.328	-162.2926
192.500000	73.441	-162.7990
195.000000	73.536	-163.4255
197.500000	73.614	-164.1584
200.000000	73.673	-164.9746
203.000000	73.719	-166.0257
206.000000	73.733	-167.1116
209.000000	73.716	-168.1919
212.000000	73.669	-169.2306
214.000000	73.624	-169.8831
218.000000	73.498	-171.0505
220.000000	73.417	-171.5483
224.000000	73.225	-172.3264
227.000000	73.056	-172.6698
230.000000	72.875	-172.7540
233.000000	72.692	-172.5432
236.000000	72.523	-172.0350
240.000000	72.347	-170.9832
243.000000	72.267	-170.0374
247.000000	72.230	-168.7767
250.000000	72.246	-167.9563
254.000000	72.303	-167.1432
258.000000	72.376	-166.6808
262.000000	72.447	-166.5198
265.000000	72.492	-166.5482
269.000000	72.534	-166.7286
272.000000	72.547	-166.9356
276.000000	72.537	-167.2365
280.000000	72.497	-167.4870
285.000000	72.415	-167.6476
290.000000	72.318	-167.5930
295.000000	72.221	-167.3505
300.000000	72.132	-166.9884
304.000000	72.068	-166.6512
307.000000	72.024	-166.3802
311.000000	71.970	-165.9989
315.000000	71.918	-165.5958
320.000000	71.855	-165.0359
325.000000	71.797	-164.3664
330.000000	71.752	-163.5753
335.000000	71.729	-162.7096
340.000000	71.729	-161.8297
345.000000	71.751	-160.9709
350.000000	71.796	-160.1529
355.000000	71.867	-159.4175
360.000000	71.964	-158.8419
365.000000	72.075	-158.5070
370.000000	72.181	-158.4535
375.000000	72.264	-158.6571
382.000000	72.315	-159.2091
387.000000	72.299	-159.6331
395.000000	72.186	-160.0236
400.000000	72.079	-159.9283
406.000000	71.946	-159.3898
412.000000	71.842	-158.4424
418.000000	71.793	-157.2475
425.000000	71.814	-155.8191
431.000000	71.887	-154.7721
437.000000	71.987	-153.9954
444.000000	72.106	-153.4414
450.000000	72.191	-153.1948
455.000000	72.245	-153.0751
462.000000	72.293	-152.9347
468.000000	72.317	-152.7830
475.000000	72.335	-152.5456
482.000000	72.347	-152.2442
487.000000	72.354	-151.9861
494.000000	72.363	-151.5527
500.000000	72.377	-151.1178
508.000000	72.412	-150.4969
515.000000	72.459	-149.9854
522.000000	72.516	-149.5608
530.000000	72.579	-149.2022
538.000000	72.626	-148.9350
545.000000	72.651	-148.6986
552.000000	72.667	-148.3896
560.000000	72.684	-147.9091
570.000000	72.727	-147.1616
580.000000	72.805	-146.4204
590.000000	72.906	-145.8736
600.000000	73.002	-145.5633
608.000000	73.062	-145.4146
615.000000	73.102	-145.2997
622.000000	73.131	-145.1677
630.000000	73.153	-144.9676
640.000000	73.174	-144.6080
650.000000	73.197	-144.1312
660.000000	73.232	-143.5809
670.000000	73.280	-142.9969
680.000000	73.340	-142.4018
690.000000	73.415	-141.8232
700.000000	73.506	-141.3104
710.000000	73.606	-140.9176
720.000000	73.707	-140.6703
730.000000	73.797	-140.5540
740.000000	73.870	-140.5221
750.000000	73.923	-140.5007
762.000000	73.968	-140.4026
775.000000	74.009	-140.1921
788.000000	74.051	-139.9187
800.000000	74.093	-139.6398
812.000000	74.137	-139.3622
825.000000	74.185	-139.1003
838.000000	74.222	-138.8754
850.000000	74.240	-138.6416
862.000000	74.244	-138.2948
875.000000	74.249	-137.7123
885.000000	74.269	-137.1252
900.000000	74.342	-136.1754
912.000000	74.436	-135.5163
925.000000	74.552	-135.0111
938.000000	74.663	-134.7105
950.000000	74.750	-134.5372
962.000000	74.822	-134.3963
975.000000	74.886	-134.2287
988.000000	74.944	-134.0158
1000.000000	74.997	-133.7764
1015.000000	75.067	-133.4344
1030.000000	75.147	-133.0839
1044.000000	75.229	-132.8122
1060.000000	75.322	-132.5883
1075.000000	75.404	-132.4145
1090.000000	75.485	-132.2599
1106.000000	75.572	-132.1536
1120.000000	75.641	-132.1223
1138.000000	75.715	-132.1115
1150.000000	75.757	-132.0912
1172.000000	75.831	-132.0362
1180.000000	75.856	-132.0161
1206.000000	75.934	-131.9518
1220.000000	75.976	-131.9362
1241.000000	76.036	-131.9904
1250.000000	76.056	-132.0567
1265.000000	76.076	-132.2084
1280.000000	76.073	-132.3278
1315.000000	76.039	-132.1869
1320.000000	76.036	-132.1444
1340.000000	76.024	-131.9862
1360.000000	76.001	-131.7934
1380.000000	75.976	-131.5314
1400.000000	75.946	-131.2708
1430.000000	75.866	-130.7163
1450.000000	75.812	-130.0779
1475.000000	75.781	-129.1861
1500.000000	75.761	-128.4114
1525.000000	75.726	-127.5958
1550.000000	75.689	-126.6872
1575.000000	75.644	-125.6517
1600.000000	75.609	-124.4114
1625.000000	75.598	-123.1419
1650.000000	75.578	-121.8606
1675.000000	75.554	-120.2978
1700.000000	75.575	-118.4484
1725.000000	75.659	-116.5825
1750.000000	75.789	-114.9484
1775.000000	75.921	-113.6297
1800.000000	76.021	-112.4426
1825.000000	76.097	-111.0630
1850.000000	76.196	-109.4240
1875.000000	76.338	-107.6878
1900.000000	76.527	-105.9803
1925.000000	76.756	-104.4617
1950.000000	76.996	-103.2417
1975.000000	77.225	-102.2341
2000.000000	77.440	-101.3249
2030.000000	77.680	-100.2421
2060.000000	77.931	-98.9669
2090.000000	78.238	-97.6520
2120.000000	78.583	-96.6675
2140.000000	78.809	-96.2192
2180.000000	79.237	-95.5808
2200.000000	79.447	-95.3184
2240.000000	79.869	-94.9945
2270.000000	80.164	-94.9807
2300.000000	80.431	-94.9942
2330.000000	80.697	-94.8628
2360.000000	80.998	-94.6770
2400.000000	81.442	-94.8197
2430.000000	81.757	-95.3667
2470.000000	82.111	-96.4225
2500.000000	82.335	-97.2272
2540.000000	82.609	-98.1866
2580.000000	82.879	-99.0765
2620.000000	83.148	-100.0235
2650.000000	83.344	-100.7985
2690.000000	83.595	-101.8959
2720.000000	83.779	-102.7714
2760.000000	84.016	-104.0461
2800.000000	84.238	-105.4715
2850.000000	84.479	-107.4325
2900.000000	84.681	-109.5253
2950.000000	84.834	-111.7362
3000.000000	84.929	-113.9183
3040.000000	84.975	-115.5427
3070.000000	84.999	-116.6689
3110.000000	85.028	-118.0574
3150.000000	85.065	-119.3899
3200.000000	85.115	-121.1238
3250.000000	85.154	-122.9382
3300.000000	85.191	-124.7959
3350.000000	85.238	-126.8848
3400.000000	85.263	-129.4616
3450.000000	85.203	-132.4988
3500.000000	85.014	-135.5828
3550.000000	84.713	-138.2508
3600.000000	84.345	-140.3429
3650.000000	83.944	-141.9287
3700.000000	83.521	-143.0617
3750.000000	83.079	-143.7045
3820.000000	82.461	-143.6895
3870.000000	82.060	-143.0875
3950.000000	81.552	-141.6514
4000.000000	81.309	-140.8033
4060.000000	81.047	-139.9561
4120.000000	80.787	-139.1570
4180.000000	80.524	-138.2512
4250.000000	80.234	-137.0248
4310.000000	80.004	-135.8912
4370.000000	79.785	-134.6998
4440.000000	79.539	-133.1495
4500.000000	79.349	-131.6451
4550.000000	79.212	-130.2978
4620.000000	79.055	-128.3152
4680.000000	78.955	-126.5385
4750.000000	78.884	-124.3832
4820.000000	78.875	-122.1719
4870.000000	78.914	-120.6064
4940.000000	79.037	-118.5330
5000.000000	79.208	-116.9657
5080.000000	79.522	-115.3633
5150.000000	79.863	-114.5766
5220.000000	80.246	-114.5069
5300.000000	80.700	-115.4981
5380.000000	81.114	-117.8179
5450.000000	81.382	-120.9727
5520.000000	81.507	-124.9948
5600.000000	81.426	-130.1317
5700.000000	80.970	-136.1867
5800.000000	80.187	-140.5564
5900.000000	79.228	-142.6185
6000.000000	78.267	-142.6482
6080.000000	77.584	-141.7377
6150.000000	77.070	-140.6245
6220.000000	76.624	-139.4244
6300.000000	76.168	-138.0410
6400.000000	75.633	-136.2026
6500.000000	75.118	-133.9680
6600.000000	74.657	-131.1367
6700.000000	74.318	-127.8386
6800.000000	74.152	-124.5247
6900.000000	74.152	-121.7839
7000.000000	74.243	-120.0534
7100.000000	74.333	-119.3738
7200.000000	74.362	-119.4871
7300.000000	74.311	-120.0926
7400.000000	74.181	-120.9686
7500.000000	73.979	-122.0152
7620.000000	73.642	-123.4938
7750.000000	73.113	-125.2102
7880.000000	72.360	-126.3190
8000.000000	71.478	-125.9084
8120.000000	70.510	-123.6132
8250.000000	69.537	-119.1451
8380.000000	68.833	-113.4950
8500.000000	68.507	-108.3315
8620.000000	68.450	-104.1236
8750.000000	68.573	-101.1930
8850.000000	68.737	-100.2649
9000.000000	69.011	-101.5900
9120.000000	69.108	-105.5484
9250.000000	68.866	-112.3334
9380.000000	68.121	-119.8872
9500.000000	66.991	-125.8327
9620.000000	65.517	-130.0283
9750.000000	63.642	-132.7483
9880.000000	61.590	-134.6482
10000.000000	59.616	-137.3082
10150.000000	57.087	-144.6535
10300.000000	54.623	-159.8015
10440.000000	53.072	177.0617
10600.000000	53.579	142.9756
10750.000000	55.645	111.5172
10900.000000	57.831	86.6653
11060.000000	59.833	68.5208
11200.000000	61.345	57.9681
11380.000000	63.089	48.4195
11500.000000	64.154	43.0427
11720.000000	65.849	33.0158
11800.000000	66.365	29.1472
12060.000000	67.721	16.6287
12200.000000	68.356	10.5131
12410.000000	69.388	2.1973
12500.000000	69.886	-1.3318
12650.000000	70.769	-7.7384
12800.000000	71.640	-15.4036
13150.000000	73.015	-39.6307
13200.000000	73.091	-43.6411
13400.000000	73.050	-59.8889
13600.000000	72.509	-75.1339
13800.000000	71.606	-88.6260
14000.000000	70.495	-101.0568
14300.000000	68.645	-121.7273
14500.000000	67.314	-140.4180
14750.000000	65.697	-173.8832
15000.000000	65.027	138.9882
15250.000000	66.128	83.3502
15500.000000	67.916	30.1510
15750.000000	69.281	-14.2731
16000.000000	69.994	-50.1461
16250.000000	70.180	-79.8193
16500.000000	70.081	-105.2785
16750.000000	70.022	-128.3207
17000.000000	70.256	-151.3738
17250.000000	70.718	-176.9417
17500.000000	71.123	153.8433
17750.000000	71.232	121.5098
18000.000000	70.931	87.4878
18250.000000	70.187	53.4060
18500.000000	69.029	20.6519
18750.000000	67.562	-10.1517
19000.000000	65.978	-39.6495
19250.000000	64.483	-69.1028
19500.000000	63.151	-98.2156
19750.000000	62.000	-123.4346
